device_id,window_id,sample_index,timestamp_ms,ax,ay,az,gx,gy,gz
esp32-c3-002,0,0,120428,0.584185,0.380678,-9.830592,-0.02638,-0.026113,0.021051
esp32-c3-002,0,1,120447,0.555455,0.37589,-9.854534,-0.026646,-0.026113,0.022116
esp32-c3-002,0,2,120467,0.545878,0.380678,-9.868899,-0.02638,-0.026113,0.022383
esp32-c3-002,0,3,120487,0.519542,0.354342,-9.880871,-0.027179,-0.026113,0.02185
esp32-c3-002,0,4,120507,0.54109,0.351948,-9.844957,-0.026913,-0.024781,0.020784
esp32-c3-002,0,5,120527,0.500388,0.344765,-9.864111,-0.026113,-0.026646,0.019185
esp32-c3-002,0,6,120547,0.579397,0.371101,-9.818622,-0.025847,-0.027712,0.019718
esp32-c3-002,0,7,120567,0.627281,0.435745,-9.837775,-0.026113,-0.026913,0.022916
esp32-c3-002,0,8,120587,0.600945,0.40462,-9.844957,-0.027979,-0.025047,0.023982
esp32-c3-002,0,9,120607,0.505177,0.349553,-9.909601,-0.02638,-0.026646,0.025047
esp32-c3-002,0,10,120627,0.471658,0.318429,-9.864111,-0.027712,-0.024781,0.022116
esp32-c3-002,0,11,120647,0.452504,0.318429,-9.844957,-0.02558,-0.027179,0.017853
esp32-c3-002,0,12,120667,0.591368,0.380678,-9.861717,-0.026113,-0.02638,0.016521
esp32-c3-002,0,13,120687,0.632069,0.426168,-9.854534,-0.026646,-0.026646,0.020518
esp32-c3-002,0,14,120707,0.632069,0.40462,-9.878476,-0.026913,-0.025047,0.024248
esp32-c3-002,0,15,120727,0.54109,0.35913,-9.868899,-0.026913,-0.02558,0.025314
esp32-c3-002,0,16,120747,0.493206,0.339977,-9.849746,-0.026646,-0.025314,0.023982
esp32-c3-002,0,17,120767,0.4956,0.339977,-9.868899,-0.02638,-0.02558,0.021583
esp32-c3-002,0,18,120787,0.531513,0.361524,-9.828198,-0.026113,-0.025847,0.019185
esp32-c3-002,0,19,120807,0.572214,0.383072,-9.876082,-0.02638,-0.02558,0.018652
esp32-c3-002,0,20,120827,0.636858,0.416591,-9.873688,-0.026113,-0.02558,0.020518
esp32-c3-002,0,21,120847,0.581791,0.385466,-9.837775,-0.026646,-0.027179,0.023715
esp32-c3-002,0,22,120867,0.545878,0.35913,-9.871294,-0.027712,-0.025847,0.023449
esp32-c3-002,0,23,120887,0.464475,0.344765,-9.873688,-0.027446,-0.025847,0.022116
esp32-c3-002,0,24,120907,0.514753,0.347159,-9.880871,-0.025314,-0.02558,0.020251
esp32-c3-002,0,25,120927,0.536301,0.383072,-9.89763,-0.025847,-0.02558,0.019185
esp32-c3-002,0,26,120947,0.620098,0.428562,-9.856929,-0.026113,-0.026113,0.019718
esp32-c3-002,0,27,120967,0.584185,0.397437,-9.856929,-0.027179,-0.025314,0.023182
esp32-c3-002,0,28,120987,0.550666,0.356736,-9.880871,-0.026113,-0.026113,0.022916
esp32-c3-002,0,29,121007,0.500388,0.349553,-9.830592,-0.026913,-0.026113,0.021583
esp32-c3-002,0,30,121027,0.543484,0.35913,-9.873688,-0.026646,-0.026913,0.021051
esp32-c3-002,0,31,121047,0.565032,0.37589,-9.842564,-0.026913,-0.02558,0.020518
esp32-c3-002,0,32,121067,0.557849,0.37589,-9.866506,-0.026913,-0.026646,0.02185
esp32-c3-002,0,33,121087,0.555455,0.363919,-9.849746,-0.027179,-0.025847,0.021583
esp32-c3-002,0,34,121107,0.54109,0.354342,-9.844957,-0.02638,-0.026913,0.020784
esp32-c3-002,0,35,121127,0.562637,0.385466,-9.854534,-0.026646,-0.02638,0.021051
esp32-c3-002,0,36,121147,0.557849,0.383072,-9.866506,-0.026113,-0.026913,0.022116
esp32-c3-002,0,37,121167,0.545878,0.368707,-9.876082,-0.027446,-0.02638,0.021583
esp32-c3-002,0,38,121187,0.531513,0.37589,-9.849746,-0.025847,-0.02638,0.02185
esp32-c3-002,0,39,121207,0.536301,0.349553,-9.847352,-0.026113,-0.026913,0.020518
esp32-c3-002,0,40,121227,0.545878,0.368707,-9.885659,-0.026646,-0.023982,0.020518
esp32-c3-002,0,41,121247,0.548272,0.373495,-9.859323,-0.026113,-0.026646,0.02185
esp32-c3-002,0,42,121267,0.545878,0.366313,-9.861717,-0.026913,-0.025847,0.022116
esp32-c3-002,0,43,121287,0.52433,0.368707,-9.861717,-0.02638,-0.02558,0.022383
esp32-c3-002,0,44,121307,0.545878,0.349553,-9.825804,-0.02558,-0.026646,0.02185
esp32-c3-002,0,45,121328,0.54109,0.368707,-9.837775,-0.025047,-0.027979,0.021051
esp32-c3-002,0,46,121347,0.584185,0.354342,-9.847352,-0.02638,-0.025314,0.020784
esp32-c3-002,0,47,121367,0.574608,0.397437,-9.866506,-0.026913,-0.025847,0.021583
esp32-c3-002,0,48,121388,0.543484,0.366313,-9.859323,-0.02638,-0.026646,0.020784
esp32-c3-002,0,49,121407,0.54109,0.368707,-9.861717,-0.02638,-0.02558,0.02185
esp32-c3-002,0,50,121428,0.533907,0.371101,-9.840169,-0.02638,-0.027179,0.020251
esp32-c3-002,0,51,121447,0.545878,0.385466,-9.868899,-0.02558,-0.02558,0.021317
esp32-c3-002,0,52,121467,0.548272,0.373495,-9.892841,-0.025847,-0.027179,0.021317
esp32-c3-002,0,53,121488,0.553061,0.351948,-9.837775,-0.027446,-0.026646,0.021583
esp32-c3-002,0,54,121507,0.54109,0.383072,-9.830592,-0.02638,-0.02638,0.021583
esp32-c3-002,0,55,121527,0.543484,0.335188,-9.859323,-0.02638,-0.025847,0.021317
esp32-c3-002,0,56,121547,0.514753,0.35913,-9.85214,-0.025847,-0.026913,0.021051
esp32-c3-002,0,57,121567,0.52433,0.390255,-9.844957,-0.026913,-0.025847,0.020784
esp32-c3-002,0,58,121587,0.565032,0.35913,-9.868899,-0.026113,-0.026113,0.020518
esp32-c3-002,0,59,121607,0.586579,0.409408,-9.847352,-0.027179,-0.024515,0.020251
esp32-c3-002,0,60,121627,0.562637,0.385466,-9.880871,-0.026646,-0.026646,0.022383
esp32-c3-002,0,61,121647,0.536301,0.366313,-9.871294,-0.027446,-0.024781,0.02185
esp32-c3-002,0,62,121667,0.54109,0.371101,-9.835381,-0.026913,-0.025314,0.021051
esp32-c3-002,0,63,121687,0.536301,0.371101,-9.849746,-0.027179,-0.02558,0.021317
esp32-c3-002,0,64,121707,0.567426,0.363919,-9.861717,-0.026913,-0.024248,0.02185
esp32-c3-002,0,65,121727,0.567426,0.385466,-9.868899,-0.026913,-0.025314,0.022916
esp32-c3-002,0,66,121747,0.56982,0.368707,-9.876082,-0.026113,-0.025847,0.022916
esp32-c3-002,0,67,121767,0.519542,0.356736,-9.859323,-0.027712,-0.025047,0.021317
esp32-c3-002,0,68,121787,0.557849,0.351948,-9.866506,-0.02638,-0.02558,0.021583
esp32-c3-002,0,69,121807,0.543484,0.37589,-9.856929,-0.02638,-0.024781,0.021317
esp32-c3-002,0,70,121827,0.553061,0.387861,-9.895236,-0.027446,-0.02558,0.021317
esp32-c3-002,0,71,121847,0.550666,0.371101,-9.844957,-0.026913,-0.025047,0.022116
esp32-c3-002,0,72,121867,0.562637,0.349553,-9.832987,-0.02638,-0.024781,0.022916
esp32-c3-002,0,73,121887,0.519542,0.371101,-9.859323,-0.026913,-0.02558,0.021583
esp32-c3-002,0,74,121907,0.509965,0.347159,-9.85214,-0.026913,-0.026113,0.02185
esp32-c3-002,0,75,121927,0.54109,0.373495,-9.856929,-0.026913,-0.02558,0.020518
esp32-c3-002,0,76,121947,0.567426,0.361524,-9.864111,-0.026646,-0.026913,0.020518
esp32-c3-002,0,77,121967,0.577003,0.397437,-9.85214,-0.026913,-0.025047,0.021051
esp32-c3-002,0,78,121987,0.56982,0.392649,-9.856929,-0.026113,-0.026646,0.022916
esp32-c3-002,0,79,122007,0.536301,0.349553,-9.842564,-0.027446,-0.024515,0.023449
esp32-c3-002,0,80,122027,0.509965,0.339977,-9.842564,-0.025847,-0.025847,0.021583
esp32-c3-002,0,81,122047,0.529119,0.339977,-9.835381,-0.025847,-0.02638,0.019718
esp32-c3-002,0,82,122067,0.574608,0.344765,-9.847352,-0.025847,-0.027179,0.018919
esp32-c3-002,0,83,122087,0.584185,0.378284,-9.873688,-0.026646,-0.025314,0.020518
esp32-c3-002,0,84,122107,0.579397,0.385466,-9.859323,-0.026113,-0.02638,0.02185
esp32-c3-002,0,85,122127,0.538695,0.37589,-9.876082,-0.02638,-0.02558,0.022116
esp32-c3-002,0,86,122147,0.531513,0.325611,-9.859323,-0.026113,-0.025314,0.021317
esp32-c3-002,0,87,122167,0.521936,0.35913,-9.866506,-0.025847,-0.02638,0.020784
esp32-c3-002,0,88,122187,0.553061,0.380678,-9.856929,-0.026113,-0.026646,0.019985
esp32-c3-002,0,89,122207,0.574608,0.397437,-9.892841,-0.026113,-0.025047,0.020784
esp32-c3-002,0,90,122227,0.56982,0.37589,-9.861717,-0.027179,-0.02558,0.022383
esp32-c3-002,0,91,122247,0.526724,0.354342,-9.89763,-0.027446,-0.02558,0.022383
esp32-c3-002,0,92,122267,0.519542,0.349553,-9.837775,-0.027179,-0.02558,0.02185
esp32-c3-002,0,93,122287,0.531513,0.371101,-9.866506,-0.025847,-0.02638,0.021051
esp32-c3-002,0,94,122307,0.557849,0.363919,-9.902418,-0.02558,-0.026646,0.019452
esp32-c3-002,0,95,122328,0.574608,0.390255,-9.866506,-0.02638,-0.027179,0.020518
esp32-c3-002,0,96,122347,0.536301,0.356736,-9.847352,-0.026646,-0.027446,0.021583
esp32-c3-002,0,97,122367,0.538695,0.361524,-9.871294,-0.02638,-0.026113,0.021051
esp32-c3-002,0,98,122387,0.565032,0.414197,-9.883265,-0.026113,-0.026646,0.020784
esp32-c3-002,0,99,122408,0.61531,0.414197,-9.859323,-0.02638,-0.026113,0.022383
esp32-c3-002,1,0,126875,0.557849,0.366313,-9.840169,-0.026646,-0.026113,0.021317
esp32-c3-002,1,1,126894,0.536301,0.366313,-9.888053,-0.026113,-0.025847,0.02185
esp32-c3-002,1,2,126915,0.543484,0.371101,-9.85214,-0.025847,-0.02638,0.022116
esp32-c3-002,1,3,126934,0.536301,0.351948,-9.837775,-0.026913,-0.02638,0.020518
esp32-c3-002,1,4,126954,0.54109,0.35913,-9.835381,-0.025847,-0.02638,0.020784
esp32-c3-002,1,5,126974,0.538695,0.371101,-9.880871,-0.026113,-0.025847,0.021317
esp32-c3-002,1,6,126994,0.54109,0.354342,-9.864111,-0.026646,-0.026646,0.021583
esp32-c3-002,1,7,127015,0.577003,0.363919,-9.861717,-0.02638,-0.02558,0.021317
esp32-c3-002,1,8,127034,0.536301,0.383072,-9.830592,-0.02638,-0.02638,0.02185
esp32-c3-002,1,9,127054,0.52433,0.371101,-9.828198,-0.026113,-0.02638,0.021317
esp32-c3-002,1,10,127074,0.54109,0.349553,-9.864111,-0.026913,-0.026113,0.020784
esp32-c3-002,1,11,127094,0.565032,0.366313,-9.861717,-0.027179,-0.025847,0.021051
esp32-c3-002,1,12,127115,0.572214,0.349553,-9.840169,-0.026913,-0.026113,0.020784
esp32-c3-002,1,13,127134,0.562637,0.361524,-9.85214,-0.026913,-0.02638,0.021583
esp32-c3-002,1,14,127154,0.505177,0.438139,-9.847352,-0.02638,-0.02638,0.022649
esp32-c3-002,1,15,127175,0.555455,0.383072,-9.85214,-0.026913,-0.025047,0.022649
esp32-c3-002,1,16,127194,0.500388,0.378284,-9.837775,-0.026113,-0.026646,0.021317
esp32-c3-002,1,17,127214,0.560243,0.349553,-9.871294,-0.026913,-0.025047,0.021051
esp32-c3-002,1,18,127234,0.581791,0.385466,-9.856929,-0.02638,-0.026113,0.020518
esp32-c3-002,1,19,127254,0.579397,0.383072,-9.842564,-0.026913,-0.026113,0.020518
esp32-c3-002,1,20,127274,0.579397,0.397437,-9.856929,-0.026646,-0.02558,0.022116
esp32-c3-002,1,21,127294,0.591368,0.368707,-9.856929,-0.02638,-0.025847,0.022649
esp32-c3-002,1,22,127314,0.519542,0.366313,-9.873688,-0.026113,-0.025847,0.022383
esp32-c3-002,1,23,127335,0.488417,0.351948,-9.861717,-0.027179,-0.025847,0.022916
esp32-c3-002,1,24,127354,0.507571,0.35913,-9.849746,-0.027179,-0.02558,0.02185
esp32-c3-002,1,25,127374,0.536301,0.354342,-9.856929,-0.026913,-0.02638,0.021051
esp32-c3-002,1,26,127394,0.560243,0.354342,-9.854534,-0.026913,-0.025314,0.020251
esp32-c3-002,1,27,127414,0.545878,0.390255,-9.85214,-0.026646,-0.026646,0.020784
esp32-c3-002,1,28,127434,0.596156,0.342371,-9.837775,-0.026913,-0.02558,0.02185
esp32-c3-002,1,29,127454,0.54109,0.426168,-9.864111,-0.026646,-0.026646,0.021317
esp32-c3-002,1,30,127474,0.521936,0.373495,-9.847352,-0.026913,-0.02638,0.02185
esp32-c3-002,1,31,127494,0.553061,0.354342,-9.871294,-0.026113,-0.026913,0.02185
esp32-c3-002,1,32,127514,0.536301,0.349553,-9.835381,-0.02638,-0.025314,0.020518
esp32-c3-002,1,33,127534,0.550666,0.373495,-9.861717,-0.027179,-0.02638,0.020251
esp32-c3-002,1,34,127554,0.555455,0.373495,-9.868899,-0.02638,-0.025847,0.020251
esp32-c3-002,1,35,127574,0.565032,0.385466,-9.856929,-0.02638,-0.02638,0.021583
esp32-c3-002,1,36,127594,0.560243,0.363919,-9.840169,-0.02638,-0.02638,0.021051
esp32-c3-002,1,37,127614,0.548272,0.363919,-9.849746,-0.026113,-0.026646,0.021317
esp32-c3-002,1,38,127634,0.517148,0.378284,-9.885659,-0.02638,-0.026646,0.020784
esp32-c3-002,1,39,127654,0.509965,0.361524,-9.856929,-0.025847,-0.027179,0.020518
esp32-c3-002,1,40,127674,0.529119,0.356736,-9.85214,-0.02558,-0.02638,0.020251
esp32-c3-002,1,41,127694,0.545878,0.371101,-9.85214,-0.02638,-0.02638,0.021317
esp32-c3-002,1,42,127714,0.646434,0.397437,-9.82341,-0.026646,-0.02558,0.020251
esp32-c3-002,1,43,127734,0.560243,0.397437,-9.864111,-0.027446,-0.02638,0.021317
esp32-c3-002,1,44,127754,0.588974,0.378284,-9.864111,-0.026646,-0.025047,0.022916
esp32-c3-002,1,45,127774,0.502782,0.378284,-9.849746,-0.02638,-0.025847,0.022649
esp32-c3-002,1,46,127794,0.512359,0.339977,-9.842564,-0.026913,-0.025847,0.02185
esp32-c3-002,1,47,127814,0.526724,0.378284,-9.842564,-0.026646,-0.026646,0.021317
esp32-c3-002,1,48,127834,0.550666,0.380678,-9.856929,-0.026646,-0.025314,0.019452
esp32-c3-002,1,49,127854,0.560243,0.383072,-9.813833,-0.02638,-0.025847,0.020784
esp32-c3-002,1,50,127874,0.562637,0.397437,-9.840169,-0.026913,-0.02638,0.02185
esp32-c3-002,1,51,127894,0.555455,0.373495,-9.859323,-0.02638,-0.025847,0.022383
esp32-c3-002,1,52,127914,0.514753,0.373495,-9.873688,-0.026913,-0.025847,0.022116
esp32-c3-002,1,53,127934,0.529119,0.361524,-9.856929,-0.027446,-0.025047,0.021317
esp32-c3-002,1,54,127954,0.574608,0.354342,-9.859323,-0.027179,-0.025314,0.020518
esp32-c3-002,1,55,127974,0.548272,0.356736,-9.885659,-0.027179,-0.025047,0.021051
esp32-c3-002,1,56,127994,0.574608,0.37589,-9.837775,-0.02638,-0.025047,0.022649
esp32-c3-002,1,57,128014,0.567426,0.378284,-9.854534,-0.026913,-0.025047,0.022916
esp32-c3-002,1,58,128034,0.574608,0.371101,-9.866506,-0.026913,-0.024781,0.022649
esp32-c3-002,1,59,128054,0.562637,0.366313,-9.85214,-0.027179,-0.02558,0.023449
esp32-c3-002,1,60,128074,0.536301,0.35913,-9.835381,-0.026113,-0.026913,0.023982
esp32-c3-002,1,61,128094,0.531513,0.342371,-9.880871,-0.026646,-0.02558,0.023449
esp32-c3-002,1,62,128114,0.486023,0.356736,-9.871294,-0.026646,-0.025847,0.021051
esp32-c3-002,1,63,128134,0.529119,0.35913,-9.864111,-0.026646,-0.026646,0.019185
esp32-c3-002,1,64,128154,0.548272,0.373495,-9.844957,-0.02638,-0.026113,0.019452
esp32-c3-002,1,65,128174,0.591368,0.395043,-9.880871,-0.026646,-0.025047,0.021317
esp32-c3-002,1,66,128194,0.591368,0.399832,-9.854534,-0.026646,-0.02558,0.022116
esp32-c3-002,1,67,128214,0.550666,0.380678,-9.844957,-0.027446,-0.02558,0.022916
esp32-c3-002,1,68,128235,0.521936,0.339977,-9.861717,-0.025847,-0.026113,0.022116
esp32-c3-002,1,69,128254,0.514753,0.351948,-9.85214,-0.026913,-0.025047,0.020251
esp32-c3-002,1,70,128274,0.548272,0.368707,-9.837775,-0.02638,-0.027179,0.019452
esp32-c3-002,1,71,128294,0.584185,0.387861,-9.861717,-0.026913,-0.02558,0.020518
esp32-c3-002,1,72,128314,0.577003,0.383072,-9.866506,-0.026913,-0.025847,0.020784
esp32-c3-002,1,73,128334,0.572214,0.380678,-9.849746,-0.02638,-0.02638,0.022649
esp32-c3-002,1,74,128354,0.529119,0.366313,-9.844957,-0.026913,-0.026113,0.022649
esp32-c3-002,1,75,128374,0.514753,0.354342,-9.849746,-0.026113,-0.02638,0.02185
esp32-c3-002,1,76,128394,0.536301,0.371101,-9.835381,-0.025847,-0.02558,0.019718
esp32-c3-002,1,77,128414,0.555455,0.387861,-9.861717,-0.025847,-0.025847,0.021317
esp32-c3-002,1,78,128434,0.574608,0.402226,-9.866506,-0.026913,-0.025847,0.021317
esp32-c3-002,1,79,128455,0.567426,0.380678,-9.873688,-0.026913,-0.026113,0.02185
esp32-c3-002,1,80,128474,0.54109,0.366313,-9.883265,-0.02638,-0.02558,0.022916
esp32-c3-002,1,81,128494,0.533907,0.354342,-9.849746,-0.025847,-0.025847,0.020518
esp32-c3-002,1,82,128514,0.567426,0.366313,-9.825804,-0.02638,-0.02638,0.020784
esp32-c3-002,1,83,128534,0.548272,0.37589,-9.847352,-0.02638,-0.02638,0.020251
esp32-c3-002,1,84,128554,0.562637,0.380678,-9.883265,-0.027446,-0.025847,0.020251
esp32-c3-002,1,85,128574,0.553061,0.380678,-9.842564,-0.025847,-0.02638,0.02185
esp32-c3-002,1,86,128594,0.533907,0.349553,-9.847352,-0.02638,-0.025847,0.021583
esp32-c3-002,1,87,128614,0.545878,0.363919,-9.876082,-0.026646,-0.02558,0.021051
esp32-c3-002,1,88,128634,0.562637,0.368707,-9.89763,-0.02638,-0.026113,0.022383
esp32-c3-002,1,89,128655,0.567426,0.371101,-9.854534,-0.027179,-0.026913,0.021051
esp32-c3-002,1,90,128674,0.562637,0.371101,-9.866506,-0.027179,-0.026113,0.02185
esp32-c3-002,1,91,128694,0.54109,0.371101,-9.868899,-0.027179,-0.02638,0.021583
esp32-c3-002,1,92,128714,0.555455,0.35913,-9.82341,-0.026113,-0.025847,0.021583
esp32-c3-002,1,93,128734,0.543484,0.354342,-9.847352,-0.025847,-0.026913,0.021583
esp32-c3-002,1,94,128754,0.529119,0.361524,-9.849746,-0.02638,-0.02638,0.021317
esp32-c3-002,1,95,128774,0.543484,0.373495,-9.880871,-0.026113,-0.026646,0.020784
esp32-c3-002,1,96,128794,0.557849,0.371101,-9.866506,-0.02638,-0.02638,0.021317
esp32-c3-002,1,97,128814,0.545878,0.363919,-9.880871,-0.02638,-0.026646,0.020784
esp32-c3-002,1,98,128834,0.533907,0.383072,-9.878476,-0.025847,-0.026113,0.02185
esp32-c3-002,1,99,128855,0.548272,0.390255,-9.849746,-0.025847,-0.026646,0.02185
esp32-c3-002,2,0,128952,0.545878,0.383072,-9.842564,-0.025314,-0.026113,0.021317
esp32-c3-002,2,1,128971,0.560243,0.371101,-9.85214,-0.02638,-0.02638,0.021317
esp32-c3-002,2,2,128991,0.54109,0.366313,-9.895236,-0.02638,-0.027446,0.020784
esp32-c3-002,2,3,129012,0.572214,0.371101,-9.868899,-0.025847,-0.027446,0.021317
esp32-c3-002,2,4,129031,0.54109,0.35913,-9.871294,-0.02638,-0.02638,0.021051
esp32-c3-002,2,5,129051,0.52433,0.383072,-9.871294,-0.026113,-0.025847,0.021317
esp32-c3-002,2,6,129071,0.533907,0.368707,-9.878476,-0.025847,-0.025314,0.022116
esp32-c3-002,2,7,129091,0.531513,0.371101,-9.866506,-0.02638,-0.026913,0.021317
esp32-c3-002,2,8,129111,0.536301,0.361524,-9.854534,-0.026646,-0.026913,0.021317
esp32-c3-002,2,9,129131,0.545878,0.356736,-9.849746,-0.025314,-0.027179,0.021317
esp32-c3-002,2,10,129151,0.560243,0.373495,-9.866506,-0.026113,-0.027446,0.019985
esp32-c3-002,2,11,129171,0.562637,0.380678,-9.883265,-0.026113,-0.026913,0.019452
esp32-c3-002,2,12,129191,0.562637,0.390255,-9.842564,-0.025847,-0.026913,0.020251
esp32-c3-002,2,13,129211,0.557849,0.378284,-9.844957,-0.025847,-0.026113,0.021583
esp32-c3-002,2,14,129231,0.550666,0.368707,-9.876082,-0.02638,-0.025847,0.022916
esp32-c3-002,2,15,129251,0.507571,0.363919,-9.880871,-0.02638,-0.025847,0.022116
esp32-c3-002,2,16,129271,0.52433,0.361524,-9.840169,-0.02638,-0.026646,0.021317
esp32-c3-002,2,17,129291,0.526724,0.361524,-9.861717,-0.026646,-0.026913,0.020784
esp32-c3-002,2,18,129311,0.548272,0.356736,-9.844957,-0.026113,-0.026113,0.020518
esp32-c3-002,2,19,129331,0.56982,0.37589,-9.837775,-0.026113,-0.02558,0.020518
esp32-c3-002,2,20,129351,0.565032,0.383072,-9.854534,-0.026113,-0.026113,0.02185
esp32-c3-002,2,21,129371,0.557849,0.363919,-9.859323,-0.02638,-0.026913,0.022383
esp32-c3-002,2,22,129391,0.54109,0.390255,-9.878476,-0.02638,-0.025847,0.022116
esp32-c3-002,2,23,129411,0.550666,0.361524,-9.873688,-0.02638,-0.026113,0.021317
esp32-c3-002,2,24,129431,0.553061,0.37589,-9.856929,-0.02558,-0.025847,0.021583
esp32-c3-002,2,25,129451,0.565032,0.371101,-9.85214,-0.026113,-0.027179,0.021051
esp32-c3-002,2,26,129471,0.56982,0.378284,-9.849746,-0.027179,-0.026113,0.021317
esp32-c3-002,2,27,129491,0.555455,0.373495,-9.844957,-0.026646,-0.02638,0.022383
esp32-c3-002,2,28,129511,0.548272,0.371101,-9.842564,-0.026113,-0.025314,0.021583
esp32-c3-002,2,29,129531,0.538695,0.368707,-9.859323,-0.026113,-0.025847,0.021051
esp32-c3-002,2,30,129551,0.538695,0.351948,-9.854534,-0.026113,-0.02638,0.021051
esp32-c3-002,2,31,129571,0.550666,0.354342,-9.837775,-0.025047,-0.02638,0.020518
esp32-c3-002,2,32,129591,0.56982,0.356736,-9.876082,-0.026113,-0.025847,0.021051
esp32-c3-002,2,33,129611,0.557849,0.387861,-9.902418,-0.026113,-0.02558,0.021583
esp32-c3-002,2,34,129631,0.560243,0.387861,-9.85214,-0.026113,-0.025847,0.021583
esp32-c3-002,2,35,129651,0.550666,0.356736,-9.840169,-0.026913,-0.026113,0.022916
esp32-c3-002,2,36,129671,0.536301,0.366313,-9.849746,-0.027179,-0.025847,0.022383
esp32-c3-002,2,37,129691,0.531513,0.371101,-9.85214,-0.026913,-0.026113,0.021583
esp32-c3-002,2,38,129711,0.536301,0.37589,-9.878476,-0.02638,-0.026113,0.021317
esp32-c3-002,2,39,129731,0.545878,0.380678,-9.876082,-0.026113,-0.026113,0.021317
esp32-c3-002,2,40,129751,0.560243,0.354342,-9.856929,-0.026646,-0.026113,0.021583
esp32-c3-002,2,41,129771,0.560243,0.363919,-9.856929,-0.026646,-0.02558,0.021317
esp32-c3-002,2,42,129792,0.550666,0.35913,-9.821015,-0.02558,-0.02558,0.022383
esp32-c3-002,2,43,129811,0.545878,0.371101,-9.842564,-0.027712,-0.025847,0.021051
esp32-c3-002,2,44,129831,0.555455,0.373495,-9.842564,-0.02638,-0.025847,0.022116
esp32-c3-002,2,45,129851,0.531513,0.361524,-9.849746,-0.026646,-0.02638,0.02185
esp32-c3-002,2,46,129871,0.562637,0.385466,-9.85214,-0.026913,-0.026646,0.021583
esp32-c3-002,2,47,129891,0.560243,0.363919,-9.844957,-0.026646,-0.026113,0.021317
esp32-c3-002,2,48,129911,0.553061,0.35913,-9.859323,-0.026913,-0.026113,0.02185
esp32-c3-002,2,49,129931,0.533907,0.371101,-9.854534,-0.026913,-0.02558,0.021051
esp32-c3-002,2,50,129951,0.538695,0.37589,-9.854534,-0.026113,-0.026646,0.021317
esp32-c3-002,2,51,129971,0.545878,0.363919,-9.849746,-0.026913,-0.02558,0.020784
esp32-c3-002,2,52,129991,0.555455,0.354342,-9.864111,-0.027179,-0.02638,0.021051
esp32-c3-002,2,53,130011,0.553061,0.37589,-9.844957,-0.026913,-0.026646,0.021317
esp32-c3-002,2,54,130031,0.567426,0.368707,-9.859323,-0.02638,-0.02558,0.021051
esp32-c3-002,2,55,130051,0.543484,0.378284,-9.856929,-0.026646,-0.025847,0.020784
esp32-c3-002,2,56,130071,0.550666,0.373495,-9.859323,-0.026113,-0.025847,0.021317
esp32-c3-002,2,57,130091,0.52433,0.368707,-9.849746,-0.025847,-0.025847,0.021583
esp32-c3-002,2,58,130111,0.529119,0.363919,-9.864111,-0.026646,-0.026646,0.021051
esp32-c3-002,2,59,130131,0.536301,0.366313,-9.82341,-0.026913,-0.02638,0.021583
esp32-c3-002,2,60,130151,0.557849,0.361524,-9.878476,-0.026913,-0.025847,0.021317
esp32-c3-002,2,61,130171,0.550666,0.380678,-9.847352,-0.026113,-0.02638,0.021317
esp32-c3-002,2,62,130191,0.543484,0.378284,-9.849746,-0.027179,-0.025314,0.021317
esp32-c3-002,2,63,130211,0.553061,0.378284,-9.849746,-0.026646,-0.026113,0.020518
esp32-c3-002,2,64,130231,0.557849,0.356736,-9.885659,-0.02638,-0.027446,0.020784
esp32-c3-002,2,65,130251,0.565032,0.380678,-9.859323,-0.026646,-0.02558,0.02185
esp32-c3-002,2,66,130271,0.56982,0.354342,-9.837775,-0.02638,-0.026913,0.022116
esp32-c3-002,2,67,130291,0.550666,0.368707,-9.844957,-0.026113,-0.02638,0.021317
esp32-c3-002,2,68,130311,0.557849,0.373495,-9.849746,-0.026913,-0.027179,0.021051
esp32-c3-002,2,69,130331,0.562637,0.356736,-9.842564,-0.025847,-0.026113,0.022116
esp32-c3-002,2,70,130351,0.543484,0.366313,-9.880871,-0.026913,-0.02558,0.02185
esp32-c3-002,2,71,130371,0.548272,0.37589,-9.868899,-0.02638,-0.026113,0.021051
esp32-c3-002,2,72,130391,0.545878,0.366313,-9.859323,-0.02638,-0.026113,0.02185
esp32-c3-002,2,73,130411,0.543484,0.361524,-9.856929,-0.026646,-0.02558,0.021583
esp32-c3-002,2,74,130431,0.536301,0.373495,-9.878476,-0.026913,-0.02638,0.02185
esp32-c3-002,2,75,130451,0.54109,0.354342,-9.85214,-0.026913,-0.025314,0.021583
esp32-c3-002,2,76,130471,0.536301,0.366313,-9.892841,-0.026113,-0.026646,0.021051
esp32-c3-002,2,77,130491,0.538695,0.363919,-9.859323,-0.02638,-0.025847,0.021051
esp32-c3-002,2,78,130511,0.529119,0.368707,-9.849746,-0.026646,-0.025314,0.021583
esp32-c3-002,2,79,130531,0.545878,0.373495,-9.880871,-0.025847,-0.026913,0.021317
esp32-c3-002,2,80,130551,0.545878,0.35913,-9.847352,-0.026646,-0.02638,0.021051
esp32-c3-002,2,81,130571,0.54109,0.35913,-9.871294,-0.02638,-0.026646,0.02185
esp32-c3-002,2,82,130591,0.548272,0.368707,-9.856929,-0.02638,-0.02638,0.022116
esp32-c3-002,2,83,130611,0.555455,0.371101,-9.861717,-0.025847,-0.02558,0.020784
esp32-c3-002,2,84,130631,0.555455,0.356736,-9.85214,-0.025847,-0.02638,0.021051
esp32-c3-002,2,85,130651,0.543484,0.37589,-9.861717,-0.026646,-0.02558,0.021317
esp32-c3-002,2,86,130671,0.555455,0.380678,-9.830592,-0.026913,-0.026113,0.02185
esp32-c3-002,2,87,130691,0.529119,0.368707,-9.837775,-0.026646,-0.025847,0.021317
esp32-c3-002,2,88,130712,0.533907,0.351948,-9.813833,-0.02638,-0.02638,0.021317
esp32-c3-002,2,89,130731,0.531513,0.356736,-9.828198,-0.02638,-0.02638,0.021317
esp32-c3-002,2,90,130751,0.550666,0.356736,-9.85214,-0.02638,-0.026646,0.021317
esp32-c3-002,2,91,130771,0.543484,0.397437,-9.866506,-0.02638,-0.024248,0.022116
esp32-c3-002,2,92,130791,0.553061,0.371101,-9.890448,-0.026646,-0.02638,0.021051
esp32-c3-002,2,93,130811,0.557849,0.378284,-9.854534,-0.02638,-0.025314,0.022116
esp32-c3-002,2,94,130831,0.545878,0.371101,-9.880871,-0.02638,-0.025314,0.021583
esp32-c3-002,2,95,130851,0.557849,0.373495,-9.854534,-0.026113,-0.026113,0.021317
esp32-c3-002,2,96,130871,0.536301,0.349553,-9.844957,-0.02558,-0.02558,0.02185
esp32-c3-002,2,97,130891,0.550666,0.387861,-9.842564,-0.02558,-0.025847,0.021583
esp32-c3-002,2,98,130911,0.555455,0.35913,-9.85214,-0.025847,-0.027446,0.020784
esp32-c3-002,2,99,130931,0.562637,0.366313,-9.888053,-0.025314,-0.02558,0.021583
esp32-c3-002,3,0,131027,0.548272,0.361524,-9.85214,-0.02638,-0.02558,0.021317
esp32-c3-002,3,1,131046,0.54109,0.37589,-9.82341,-0.02638,-0.026113,0.021051
esp32-c3-002,3,2,131066,0.550666,0.361524,-9.876082,-0.02638,-0.026913,0.020518
esp32-c3-002,3,3,131086,0.557849,0.378284,-9.861717,-0.026646,-0.025847,0.022116
esp32-c3-002,3,4,131107,0.560243,0.37589,-9.878476,-0.026913,-0.025047,0.021317
esp32-c3-002,3,5,131126,0.538695,0.339977,-9.878476,-0.02638,-0.02558,0.021583
esp32-c3-002,3,6,131146,0.536301,0.37589,-9.854534,-0.027446,-0.025047,0.021317
esp32-c3-002,3,7,131166,0.54109,0.385466,-9.866506,-0.027179,-0.025047,0.02185
esp32-c3-002,3,8,131186,0.550666,0.373495,-9.866506,-0.026646,-0.025847,0.022116
esp32-c3-002,3,9,131206,0.553061,0.361524,-9.856929,-0.026113,-0.025314,0.021583
esp32-c3-002,3,10,131226,0.54109,0.371101,-9.85214,-0.026646,-0.024515,0.022116
esp32-c3-002,3,11,131246,0.543484,0.371101,-9.840169,-0.026913,-0.025047,0.022116
esp32-c3-002,3,12,131266,0.555455,0.368707,-9.818622,-0.027179,-0.02558,0.022383
esp32-c3-002,3,13,131286,0.543484,0.378284,-9.878476,-0.027712,-0.025047,0.022916
esp32-c3-002,3,14,131306,0.531513,0.371101,-9.837775,-0.026646,-0.02558,0.021583
esp32-c3-002,3,15,131326,0.543484,0.35913,-9.844957,-0.026913,-0.026113,0.021051
esp32-c3-002,3,16,131346,0.526724,0.368707,-9.85214,-0.026913,-0.025847,0.021051
esp32-c3-002,3,17,131366,0.543484,0.373495,-9.844957,-0.026646,-0.02558,0.021051
esp32-c3-002,3,18,131386,0.567426,0.373495,-9.864111,-0.02638,-0.026646,0.021583
esp32-c3-002,3,19,131406,0.555455,0.37589,-9.861717,-0.026913,-0.026113,0.021583
esp32-c3-002,3,20,131426,0.543484,0.383072,-9.840169,-0.02638,-0.02638,0.021583
esp32-c3-002,3,21,131446,0.545878,0.37589,-9.885659,-0.027979,-0.02558,0.022116
esp32-c3-002,3,22,131466,0.538695,0.385466,-9.861717,-0.025847,-0.026913,0.021051
esp32-c3-002,3,23,131486,0.54109,0.380678,-9.854534,-0.026113,-0.026646,0.020784
esp32-c3-002,3,24,131506,0.54109,0.383072,-9.883265,-0.025847,-0.02638,0.020784
esp32-c3-002,3,25,131526,0.579397,0.371101,-9.856929,-0.02638,-0.027446,0.020784
esp32-c3-002,3,26,131546,0.54109,0.35913,-9.890448,-0.02558,-0.026913,0.022116
esp32-c3-002,3,27,131566,0.531513,0.356736,-9.840169,-0.02638,-0.026913,0.021583
esp32-c3-002,3,28,131586,0.521936,0.344765,-9.868899,-0.026113,-0.027179,0.019985
esp32-c3-002,3,29,131606,0.538695,0.368707,-9.859323,-0.026113,-0.026913,0.019452
esp32-c3-002,3,30,131626,0.565032,0.378284,-9.849746,-0.025847,-0.027179,0.019718
esp32-c3-002,3,31,131646,0.574608,0.363919,-9.890448,-0.026113,-0.026113,0.020784
esp32-c3-002,3,32,131666,0.577003,0.390255,-9.854534,-0.026113,-0.025314,0.022916
esp32-c3-002,3,33,131686,0.545878,0.35913,-9.868899,-0.02558,-0.025847,0.02185
esp32-c3-002,3,34,131706,0.519542,0.371101,-9.871294,-0.026646,-0.026113,0.022116
esp32-c3-002,3,35,131726,0.517148,0.361524,-9.821015,-0.026646,-0.026646,0.021051
esp32-c3-002,3,36,131746,0.548272,0.351948,-9.864111,-0.02638,-0.025847,0.021317
esp32-c3-002,3,37,131766,0.555455,0.35913,-9.866506,-0.026646,-0.025847,0.020251
esp32-c3-002,3,38,131786,0.555455,0.366313,-9.868899,-0.025847,-0.026646,0.021051
esp32-c3-002,3,39,131806,0.543484,0.390255,-9.856929,-0.025847,-0.02638,0.021051
esp32-c3-002,3,40,131827,0.560243,0.35913,-9.847352,-0.026646,-0.025847,0.02185
esp32-c3-002,3,41,131846,0.536301,0.354342,-9.868899,-0.026913,-0.02558,0.021317
esp32-c3-002,3,42,131866,0.526724,0.371101,-9.849746,-0.025847,-0.026113,0.021317
esp32-c3-002,3,43,131886,0.536301,0.347159,-9.866506,-0.02638,-0.02558,0.021051
esp32-c3-002,3,44,131906,0.538695,0.37589,-9.854534,-0.02638,-0.02638,0.020784
esp32-c3-002,3,45,131926,0.54109,0.351948,-9.868899,-0.025847,-0.025314,0.021051
esp32-c3-002,3,46,131946,0.567426,0.373495,-9.830592,-0.026646,-0.026113,0.021317
esp32-c3-002,3,47,131966,0.538695,0.371101,-9.868899,-0.027446,-0.02638,0.021583
esp32-c3-002,3,48,131986,0.548272,0.361524,-9.847352,-0.026913,-0.026913,0.022383
esp32-c3-002,3,49,132006,0.533907,0.363919,-9.859323,-0.026913,-0.02558,0.021317
esp32-c3-002,3,50,132026,0.538695,0.356736,-9.864111,-0.026646,-0.025314,0.022116
esp32-c3-002,3,51,132046,0.533907,0.361524,-9.871294,-0.026913,-0.027446,0.021583
esp32-c3-002,3,52,132066,0.543484,0.366313,-9.890448,-0.026646,-0.025847,0.021051
esp32-c3-002,3,53,132086,0.545878,0.383072,-9.854534,-0.02638,-0.026113,0.02185
esp32-c3-002,3,54,132106,0.555455,0.380678,-9.880871,-0.026646,-0.02558,0.022116
esp32-c3-002,3,55,132127,0.560243,0.373495,-9.832987,-0.026646,-0.025047,0.021051
esp32-c3-002,3,56,132146,0.538695,0.363919,-9.864111,-0.026646,-0.025314,0.020784
esp32-c3-002,3,57,132166,0.553061,0.361524,-9.861717,-0.02638,-0.02558,0.021051
esp32-c3-002,3,58,132186,0.553061,0.378284,-9.885659,-0.02638,-0.026113,0.021051
esp32-c3-002,3,59,132206,0.545878,0.37589,-9.859323,-0.026113,-0.02638,0.021583
esp32-c3-002,3,60,132226,0.548272,0.349553,-9.825804,-0.02638,-0.026113,0.021051
esp32-c3-002,3,61,132246,0.550666,0.373495,-9.825804,-0.026913,-0.026113,0.022116
esp32-c3-002,3,62,132266,0.533907,0.35913,-9.842564,-0.026646,-0.026113,0.021583
esp32-c3-002,3,63,132286,0.521936,0.351948,-9.837775,-0.026913,-0.02638,0.021317
esp32-c3-002,3,64,132306,0.555455,0.37589,-9.849746,-0.026646,-0.02558,0.021051
esp32-c3-002,3,65,132326,0.555455,0.378284,-9.866506,-0.026646,-0.024781,0.021317
esp32-c3-002,3,66,132346,0.548272,0.373495,-9.885659,-0.026646,-0.025847,0.02185
esp32-c3-002,3,67,132366,0.538695,0.383072,-9.866506,-0.026646,-0.02638,0.020784
esp32-c3-002,3,68,132386,0.545878,0.351948,-9.854534,-0.026646,-0.02558,0.021051
esp32-c3-002,3,69,132406,0.548272,0.380678,-9.883265,-0.02638,-0.027179,0.021051
esp32-c3-002,3,70,132426,0.54109,0.361524,-9.837775,-0.026646,-0.026113,0.021051
esp32-c3-002,3,71,132446,0.565032,0.37589,-9.854534,-0.026113,-0.027446,0.021051
esp32-c3-002,3,72,132466,0.548272,0.37589,-9.868899,-0.02638,-0.026913,0.02185
esp32-c3-002,3,73,132486,0.555455,0.378284,-9.861717,-0.025847,-0.02638,0.022383
esp32-c3-002,3,74,132506,0.56982,0.371101,-9.890448,-0.026646,-0.027446,0.023982
esp32-c3-002,3,75,132526,0.519542,0.342371,-9.859323,-0.02638,-0.025847,0.023449
esp32-c3-002,3,76,132546,0.497994,0.337582,-9.873688,-0.02638,-0.025314,0.021051
esp32-c3-002,3,77,132566,0.521936,0.347159,-9.854534,-0.027446,-0.026113,0.019452
esp32-c3-002,3,78,132586,0.567426,0.373495,-9.847352,-0.02638,-0.027179,0.019185
esp32-c3-002,3,79,132606,0.574608,0.395043,-9.825804,-0.025847,-0.027179,0.020251
esp32-c3-002,3,80,132626,0.574608,0.395043,-9.854534,-0.02638,-0.025314,0.02185
esp32-c3-002,3,81,132646,0.565032,0.371101,-9.873688,-0.026646,-0.025847,0.022383
esp32-c3-002,3,82,132666,0.533907,0.347159,-9.878476,-0.026646,-0.026113,0.023182
esp32-c3-002,3,83,132686,0.531513,0.356736,-9.859323,-0.026113,-0.026646,0.021583
esp32-c3-002,3,84,132706,0.517148,0.356736,-9.861717,-0.02558,-0.027712,0.021317
esp32-c3-002,3,85,132726,0.54109,0.368707,-9.864111,-0.02638,-0.027446,0.020784
esp32-c3-002,3,86,132746,0.553061,0.373495,-9.854534,-0.025847,-0.026646,0.020251
esp32-c3-002,3,87,132766,0.565032,0.354342,-9.856929,-0.02638,-0.027446,0.020784
esp32-c3-002,3,88,132786,0.550666,0.371101,-9.866506,-0.026913,-0.026913,0.021317
esp32-c3-002,3,89,132806,0.521936,0.361524,-9.854534,-0.025847,-0.026913,0.021051
esp32-c3-002,3,90,132826,0.557849,0.351948,-9.847352,-0.02638,-0.026113,0.021317
esp32-c3-002,3,91,132846,0.56982,0.368707,-9.849746,-0.02638,-0.025847,0.021317
esp32-c3-002,3,92,132866,0.557849,0.35913,-9.844957,-0.02558,-0.026113,0.021583
esp32-c3-002,3,93,132886,0.536301,0.361524,-9.859323,-0.026113,-0.026113,0.02185
esp32-c3-002,3,94,132906,0.54109,0.361524,-9.842564,-0.02638,-0.025847,0.021317
esp32-c3-002,3,95,132926,0.533907,0.35913,-9.864111,-0.026913,-0.025314,0.022383
esp32-c3-002,3,96,132946,0.548272,0.383072,-9.854534,-0.026113,-0.02638,0.021051
esp32-c3-002,3,97,132967,0.54109,0.361524,-9.842564,-0.026113,-0.026913,0.021051
esp32-c3-002,3,98,132986,0.536301,0.368707,-9.856929,-0.02558,-0.026913,0.021051
esp32-c3-002,3,99,133006,0.560243,0.378284,-9.828198,-0.02558,-0.02638,0.020784
esp32-c3-002,4,0,133109,0.548272,0.35913,-9.873688,-0.026646,-0.026646,0.022116
esp32-c3-002,4,1,133129,0.543484,0.371101,-9.85214,-0.027179,-0.025047,0.021317
esp32-c3-002,4,2,133148,0.545878,0.373495,-9.861717,-0.025847,-0.025047,0.021317
esp32-c3-002,4,3,133168,0.543484,0.361524,-9.864111,-0.026646,-0.02558,0.021583
esp32-c3-002,4,4,133188,0.555455,0.361524,-9.876082,-0.026646,-0.02638,0.02185
esp32-c3-002,4,5,133209,0.555455,0.368707,-9.868899,-0.025847,-0.025847,0.021317
esp32-c3-002,4,6,133228,0.533907,0.37589,-9.864111,-0.02638,-0.025314,0.022116
esp32-c3-002,4,7,133248,0.545878,0.373495,-9.821015,-0.026913,-0.025847,0.021317
esp32-c3-002,4,8,133268,0.533907,0.354342,-9.873688,-0.026646,-0.025847,0.021317
esp32-c3-002,4,9,133288,0.562637,0.361524,-9.868899,-0.027179,-0.02638,0.022116
esp32-c3-002,4,10,133308,0.557849,0.371101,-9.849746,-0.02638,-0.025047,0.02185
esp32-c3-002,4,11,133328,0.543484,0.380678,-9.818622,-0.027179,-0.02558,0.021051
esp32-c3-002,4,12,133348,0.54109,0.373495,-9.85214,-0.025847,-0.02558,0.021317
esp32-c3-002,4,13,133368,0.545878,0.354342,-9.859323,-0.02638,-0.02638,0.021051
esp32-c3-002,4,14,133388,0.557849,0.356736,-9.854534,-0.02638,-0.026113,0.021317
esp32-c3-002,4,15,133408,0.550666,0.37589,-9.849746,-0.026913,-0.025847,0.02185
esp32-c3-002,4,16,133428,0.562637,0.368707,-9.864111,-0.025847,-0.026113,0.021051
esp32-c3-002,4,17,133448,0.555455,0.37589,-9.85214,-0.025847,-0.025847,0.021583
esp32-c3-002,4,18,133468,0.531513,0.35913,-9.904813,-0.026646,-0.025847,0.021583
esp32-c3-002,4,19,133488,0.538695,0.35913,-9.861717,-0.025847,-0.026646,0.021317
esp32-c3-002,4,20,133508,0.54109,0.371101,-9.859323,-0.025847,-0.025314,0.021583
esp32-c3-002,4,21,133528,0.550666,0.363919,-9.811439,-0.02638,-0.02558,0.02185
esp32-c3-002,4,22,133548,0.553061,0.366313,-9.837775,-0.027179,-0.025314,0.02185
esp32-c3-002,4,23,133568,0.574608,0.361524,-9.883265,-0.027179,-0.02558,0.021051
esp32-c3-002,4,24,133588,0.555455,0.35913,-9.868899,-0.027179,-0.025847,0.021583
esp32-c3-002,4,25,133608,0.557849,0.368707,-9.866506,-0.027179,-0.025847,0.021583
esp32-c3-002,4,26,133628,0.543484,0.349553,-9.868899,-0.026646,-0.026113,0.021583
esp32-c3-002,4,27,133648,0.553061,0.373495,-9.82341,-0.026113,-0.026113,0.020784
esp32-c3-002,4,28,133668,0.548272,0.368707,-9.854534,-0.02638,-0.025847,0.021051
esp32-c3-002,4,29,133688,0.54109,0.35913,-9.866506,-0.02638,-0.026113,0.021317
esp32-c3-002,4,30,133708,0.531513,0.371101,-9.854534,-0.02638,-0.025847,0.021583
esp32-c3-002,4,31,133728,0.550666,0.373495,-9.842564,-0.02638,-0.025847,0.021583
esp32-c3-002,4,32,133748,0.54109,0.349553,-9.871294,-0.026913,-0.02558,0.021583
esp32-c3-002,4,33,133768,0.538695,0.373495,-9.885659,-0.025847,-0.02558,0.021583
esp32-c3-002,4,34,133788,0.553061,0.363919,-9.883265,-0.026913,-0.024515,0.021051
esp32-c3-002,4,35,133808,0.565032,0.356736,-9.861717,-0.027179,-0.02558,0.021583
esp32-c3-002,4,36,133828,0.545878,0.342371,-9.880871,-0.026646,-0.026113,0.022116
esp32-c3-002,4,37,133848,0.543484,0.356736,-9.861717,-0.026113,-0.026113,0.020518
esp32-c3-002,4,38,133868,0.553061,0.366313,-9.864111,-0.025847,-0.025047,0.020784
esp32-c3-002,4,39,133888,0.545878,0.390255,-9.878476,-0.026913,-0.025314,0.021583
esp32-c3-002,4,40,133908,0.545878,0.37589,-9.864111,-0.026913,-0.02638,0.022383
esp32-c3-002,4,41,133928,0.567426,0.361524,-9.844957,-0.026913,-0.026646,0.02185
esp32-c3-002,4,42,133948,0.550666,0.380678,-9.849746,-0.02638,-0.02558,0.021583
esp32-c3-002,4,43,133968,0.533907,0.366313,-9.854534,-0.026646,-0.02638,0.021317
esp32-c3-002,4,44,133988,0.536301,0.361524,-9.837775,-0.027179,-0.026113,0.020784
esp32-c3-002,4,45,134008,0.543484,0.385466,-9.854534,-0.026913,-0.026646,0.021051
esp32-c3-002,4,46,134028,0.545878,0.368707,-9.866506,-0.025847,-0.026646,0.021051
esp32-c3-002,4,47,134048,0.543484,0.366313,-9.844957,-0.027179,-0.027446,0.021051
esp32-c3-002,4,48,134068,0.550666,0.361524,-9.864111,-0.026913,-0.026113,0.021583
esp32-c3-002,4,49,134089,0.54109,0.380678,-9.856929,-0.026646,-0.025847,0.02185
esp32-c3-002,4,50,134108,0.548272,0.373495,-9.856929,-0.02638,-0.026113,0.021583
esp32-c3-002,4,51,134128,0.550666,0.371101,-9.842564,-0.026913,-0.026113,0.02185
esp32-c3-002,4,52,134148,0.538695,0.378284,-9.856929,-0.02558,-0.02638,0.021051
esp32-c3-002,4,53,134168,0.543484,0.371101,-9.871294,-0.026113,-0.025314,0.02185
esp32-c3-002,4,54,134189,0.555455,0.354342,-9.866506,-0.02638,-0.026113,0.021583
esp32-c3-002,4,55,134208,0.545878,0.371101,-9.854534,-0.026113,-0.025847,0.021317
esp32-c3-002,4,56,134228,0.543484,0.349553,-9.832987,-0.026113,-0.026913,0.021583
esp32-c3-002,4,57,134248,0.543484,0.368707,-9.866506,-0.025847,-0.02638,0.021583
esp32-c3-002,4,58,134268,0.548272,0.363919,-9.873688,-0.026646,-0.026913,0.02185
esp32-c3-002,4,59,134288,0.557849,0.363919,-9.849746,-0.02638,-0.026113,0.02185
esp32-c3-002,4,60,134308,0.553061,0.368707,-9.847352,-0.026113,-0.02558,0.021583
esp32-c3-002,4,61,134328,0.52433,0.378284,-9.873688,-0.026646,-0.026646,0.021051
esp32-c3-002,4,62,134348,0.545878,0.351948,-9.878476,-0.026913,-0.02558,0.021317
esp32-c3-002,4,63,134368,0.533907,0.351948,-9.871294,-0.026913,-0.026113,0.02185
esp32-c3-002,4,64,134388,0.529119,0.37589,-9.849746,-0.026113,-0.02558,0.02185
esp32-c3-002,4,65,134408,0.531513,0.35913,-9.864111,-0.026646,-0.026113,0.021583
esp32-c3-002,4,66,134428,0.548272,0.37589,-9.840169,-0.026913,-0.026913,0.021583
esp32-c3-002,4,67,134448,0.531513,0.37589,-9.864111,-0.026113,-0.026113,0.021051
esp32-c3-002,4,68,134468,0.553061,0.37589,-9.866506,-0.02638,-0.026113,0.021583
esp32-c3-002,4,69,134489,0.555455,0.35913,-9.85214,-0.026913,-0.025847,0.020784
esp32-c3-002,4,70,134508,0.545878,0.37589,-9.842564,-0.026646,-0.02558,0.02185
esp32-c3-002,4,71,134528,0.550666,0.363919,-9.830592,-0.027179,-0.025847,0.022116
esp32-c3-002,4,72,134548,0.550666,0.363919,-9.844957,-0.026646,-0.025847,0.021583
esp32-c3-002,4,73,134568,0.531513,0.366313,-9.854534,-0.02638,-0.026113,0.02185
esp32-c3-002,4,74,134588,0.550666,0.361524,-9.878476,-0.027179,-0.02638,0.021317
esp32-c3-002,4,75,134608,0.565032,0.351948,-9.864111,-0.026646,-0.026113,0.021317
esp32-c3-002,4,76,134628,0.550666,0.368707,-9.868899,-0.02638,-0.026646,0.021051
esp32-c3-002,4,77,134648,0.548272,0.35913,-9.871294,-0.027179,-0.025314,0.02185
esp32-c3-002,4,78,134668,0.543484,0.35913,-9.856929,-0.026913,-0.026646,0.021583
esp32-c3-002,4,79,134688,0.550666,0.342371,-9.85214,-0.025847,-0.02558,0.021051
esp32-c3-002,4,80,134708,0.553061,0.37589,-9.847352,-0.026113,-0.02638,0.021317
esp32-c3-002,4,81,134728,0.562637,0.361524,-9.876082,-0.027179,-0.025047,0.022116
esp32-c3-002,4,82,134748,0.557849,0.380678,-9.871294,-0.026646,-0.026113,0.022116
esp32-c3-002,4,83,134768,0.543484,0.361524,-9.871294,-0.026113,-0.025314,0.021317
esp32-c3-002,4,84,134789,0.562637,0.363919,-9.873688,-0.02638,-0.02558,0.021583
esp32-c3-002,4,85,134808,0.536301,0.356736,-9.85214,-0.026113,-0.026646,0.021317
esp32-c3-002,4,86,134828,0.557849,0.385466,-9.856929,-0.027179,-0.026113,0.021583
esp32-c3-002,4,87,134848,0.548272,0.363919,-9.856929,-0.026646,-0.02558,0.021583
esp32-c3-002,4,88,134868,0.550666,0.366313,-9.866506,-0.026646,-0.025847,0.020518
esp32-c3-002,4,89,134888,0.54109,0.363919,-9.842564,-0.027179,-0.026113,0.021583
esp32-c3-002,4,90,134908,0.538695,0.361524,-9.85214,-0.027446,-0.025847,0.02185
esp32-c3-002,4,91,134928,0.54109,0.368707,-9.85214,-0.02638,-0.025847,0.021317
esp32-c3-002,4,92,134948,0.555455,0.347159,-9.878476,-0.026113,-0.026113,0.022116
esp32-c3-002,4,93,134968,0.550666,0.373495,-9.849746,-0.02638,-0.02558,0.02185
esp32-c3-002,4,94,134988,0.560243,0.354342,-9.871294,-0.026646,-0.026113,0.020784
esp32-c3-002,4,95,135008,0.536301,0.37589,-9.866506,-0.026646,-0.025047,0.02185
esp32-c3-002,4,96,135028,0.52433,0.363919,-9.821015,-0.026113,-0.02558,0.021317
esp32-c3-002,4,97,135048,0.545878,0.368707,-9.825804,-0.026646,-0.02558,0.020518
esp32-c3-002,4,98,135068,0.54109,0.371101,-9.837775,-0.026113,-0.026113,0.021583
esp32-c3-002,4,99,135088,0.54109,0.378284,-9.844957,-0.02638,-0.025314,0.021583
esp32-c3-002,5,0,135195,0.548272,0.366313,-9.876082,-0.026913,-0.026113,0.021317
esp32-c3-002,5,1,135214,0.562637,0.366313,-9.856929,-0.026913,-0.026113,0.02185
esp32-c3-002,5,2,135235,0.584185,0.356736,-9.830592,-0.026646,-0.026113,0.021317
esp32-c3-002,5,3,135254,0.550666,0.371101,-9.868899,-0.026113,-0.025847,0.021051
esp32-c3-002,5,4,135274,0.54109,0.373495,-9.840169,-0.025847,-0.026113,0.021583
esp32-c3-002,5,5,135294,0.553061,0.35913,-9.816227,-0.026646,-0.025847,0.021317
esp32-c3-002,5,6,135315,0.545878,0.363919,-9.861717,-0.02558,-0.025314,0.021583
esp32-c3-002,5,7,135334,0.536301,0.371101,-9.849746,-0.026913,-0.026113,0.021583
esp32-c3-002,5,8,135354,0.555455,0.361524,-9.873688,-0.02638,-0.025847,0.02185
esp32-c3-002,5,9,135374,0.54109,0.35913,-9.871294,-0.02638,-0.025847,0.021051
esp32-c3-002,5,10,135394,0.538695,0.371101,-9.861717,-0.026113,-0.02558,0.021051
esp32-c3-002,5,11,135415,0.538695,0.399832,-9.861717,-0.02638,-0.025847,0.020784
esp32-c3-002,5,12,135434,0.560243,0.371101,-9.861717,-0.026113,-0.026646,0.021583
esp32-c3-002,5,13,135454,0.548272,0.378284,-9.830592,-0.026113,-0.025847,0.021317
esp32-c3-002,5,14,135474,0.545878,0.387861,-9.849746,-0.026646,-0.02638,0.021583
esp32-c3-002,5,15,135494,0.560243,0.351948,-9.861717,-0.02638,-0.026113,0.021051
esp32-c3-002,5,16,135514,0.560243,0.361524,-9.871294,-0.026113,-0.025847,0.02185
esp32-c3-002,5,17,135534,0.533907,0.368707,-9.883265,-0.026646,-0.025847,0.021317
esp32-c3-002,5,18,135554,0.538695,0.37589,-9.866506,-0.026646,-0.02558,0.021583
esp32-c3-002,5,19,135574,0.543484,0.363919,-9.866506,-0.025847,-0.025847,0.021583
esp32-c3-002,5,20,135594,0.550666,0.371101,-9.864111,-0.026913,-0.02558,0.021317
esp32-c3-002,5,21,135614,0.545878,0.363919,-9.883265,-0.026646,-0.026113,0.02185
esp32-c3-002,5,22,135634,0.557849,0.35913,-9.868899,-0.026913,-0.02558,0.02185
esp32-c3-002,5,23,135654,0.514753,0.371101,-9.840169,-0.026913,-0.026113,0.02185
esp32-c3-002,5,24,135674,0.536301,0.373495,-9.864111,-0.02638,-0.026113,0.021317
esp32-c3-002,5,25,135694,0.531513,0.378284,-9.849746,-0.027179,-0.025314,0.02185
esp32-c3-002,5,26,135714,0.550666,0.383072,-9.866506,-0.026913,-0.02558,0.02185
esp32-c3-002,5,27,135734,0.536301,0.373495,-9.844957,-0.026913,-0.02558,0.022116
esp32-c3-002,5,28,135754,0.54109,0.366313,-9.837775,-0.026113,-0.026113,0.02185
esp32-c3-002,5,29,135774,0.550666,0.380678,-9.864111,-0.02558,-0.026113,0.022383
esp32-c3-002,5,30,135794,0.526724,0.37589,-9.895236,-0.02638,-0.026646,0.021051
esp32-c3-002,5,31,135814,0.54109,0.383072,-9.847352,-0.026646,-0.02638,0.020518
esp32-c3-002,5,32,135834,0.545878,0.361524,-9.844957,-0.026646,-0.02638,0.021317
esp32-c3-002,5,33,135854,0.555455,0.366313,-9.861717,-0.027179,-0.02638,0.02185
esp32-c3-002,5,34,135874,0.565032,0.366313,-9.888053,-0.02638,-0.02558,0.02185
esp32-c3-002,5,35,135894,0.54109,0.35913,-9.866506,-0.025847,-0.025847,0.021317
esp32-c3-002,5,36,135915,0.553061,0.354342,-9.832987,-0.02638,-0.025847,0.02185
esp32-c3-002,5,37,135934,0.567426,0.368707,-9.85214,-0.02638,-0.025047,0.02185
esp32-c3-002,5,38,135954,0.545878,0.344765,-9.847352,-0.026113,-0.026113,0.02185
esp32-c3-002,5,39,135974,0.536301,0.371101,-9.880871,-0.026646,-0.025847,0.02185
esp32-c3-002,5,40,135994,0.54109,0.356736,-9.854534,-0.026646,-0.025847,0.021583
esp32-c3-002,5,41,136014,0.567426,0.35913,-9.844957,-0.026646,-0.026113,0.021317
esp32-c3-002,5,42,136034,0.538695,0.371101,-9.830592,-0.026646,-0.025847,0.021583
esp32-c3-002,5,43,136054,0.550666,0.368707,-9.842564,-0.026646,-0.026913,0.021317
esp32-c3-002,5,44,136074,0.572214,0.385466,-9.842564,-0.026646,-0.025314,0.021051
esp32-c3-002,5,45,136094,0.536301,0.383072,-9.868899,-0.026113,-0.026646,0.020784
esp32-c3-002,5,46,136114,0.550666,0.368707,-9.85214,-0.025314,-0.027712,0.021317
esp32-c3-002,5,47,136135,0.538695,0.361524,-9.866506,-0.02558,-0.027446,0.02185
esp32-c3-002,5,48,136154,0.54109,0.366313,-9.878476,-0.025847,-0.026646,0.020784
esp32-c3-002,5,49,136174,0.526724,0.368707,-9.871294,-0.026113,-0.026913,0.021051
esp32-c3-002,5,50,136194,0.555455,0.368707,-9.849746,-0.02638,-0.026113,0.021051
esp32-c3-002,5,51,136214,0.565032,0.366313,-9.854534,-0.027179,-0.026113,0.020784
esp32-c3-002,5,52,136234,0.572214,0.378284,-9.847352,-0.026113,-0.025047,0.021317
esp32-c3-002,5,53,136254,0.560243,0.387861,-9.840169,-0.026646,-0.026113,0.021317
esp32-c3-002,5,54,136274,0.555455,0.383072,-9.876082,-0.026646,-0.026113,0.02185
esp32-c3-002,5,55,136294,0.536301,0.366313,-9.892841,-0.026913,-0.025847,0.022649
esp32-c3-002,5,56,136314,0.529119,0.349553,-9.868899,-0.027446,-0.023449,0.022383
esp32-c3-002,5,57,136334,0.490811,0.335188,-9.842564,-0.02558,-0.027179,0.021317
esp32-c3-002,5,58,136354,0.560243,0.347159,-9.861717,-0.027712,-0.025314,0.020251
esp32-c3-002,5,59,136374,0.557849,0.371101,-9.837775,-0.02638,-0.025047,0.020784
esp32-c3-002,5,60,136394,0.56982,0.37589,-9.849746,-0.027446,-0.024781,0.02185
esp32-c3-002,5,61,136414,0.56982,0.385466,-9.883265,-0.027446,-0.025047,0.022649
esp32-c3-002,5,62,136434,0.545878,0.37589,-9.835381,-0.027712,-0.023449,0.023449
esp32-c3-002,5,63,136454,0.517148,0.354342,-9.866506,-0.027712,-0.023982,0.022916
esp32-c3-002,5,64,136474,0.517148,0.347159,-9.864111,-0.028245,-0.022383,0.021317
esp32-c3-002,5,65,136494,0.52433,0.371101,-9.856929,-0.027712,-0.025847,0.020784
esp32-c3-002,5,66,136514,0.555455,0.37589,-9.844957,-0.027179,-0.023449,0.020251
esp32-c3-002,5,67,136535,0.56982,0.387861,-9.861717,-0.026913,-0.025047,0.021051
esp32-c3-002,5,68,136554,0.54109,0.361524,-9.888053,-0.027979,-0.025047,0.021317
esp32-c3-002,5,69,136574,0.526724,0.368707,-9.868899,-0.026913,-0.025847,0.021051
esp32-c3-002,5,70,136594,0.543484,0.373495,-9.849746,-0.026646,-0.02558,0.020518
esp32-c3-002,5,71,136614,0.550666,0.373495,-9.876082,-0.026646,-0.02638,0.021051
esp32-c3-002,5,72,136634,0.56982,0.390255,-9.832987,-0.026646,-0.02638,0.020784
esp32-c3-002,5,73,136654,0.560243,0.380678,-9.854534,-0.02638,-0.025847,0.021583
esp32-c3-002,5,74,136674,0.557849,0.351948,-9.837775,-0.026913,-0.026646,0.021583
esp32-c3-002,5,75,136694,0.519542,0.366313,-9.830592,-0.026646,-0.026646,0.021051
esp32-c3-002,5,76,136714,0.521936,0.366313,-9.883265,-0.02638,-0.026646,0.020518
esp32-c3-002,5,77,136734,0.545878,0.373495,-9.871294,-0.026913,-0.02638,0.020251
esp32-c3-002,5,78,136754,0.555455,0.380678,-9.880871,-0.025847,-0.026646,0.019985
esp32-c3-002,5,79,136774,0.553061,0.356736,-9.830592,-0.02638,-0.026646,0.020518
esp32-c3-002,5,80,136794,0.56982,0.371101,-9.864111,-0.026646,-0.025314,0.020518
esp32-c3-002,5,81,136814,0.584185,0.385466,-9.871294,-0.02638,-0.026113,0.022383
esp32-c3-002,5,82,136834,0.560243,0.349553,-9.859323,-0.025847,-0.026646,0.022649
esp32-c3-002,5,83,136854,0.529119,0.356736,-9.849746,-0.02638,-0.026113,0.022116
esp32-c3-002,5,84,136874,0.531513,0.373495,-9.854534,-0.025847,-0.027179,0.020518
esp32-c3-002,5,85,136894,0.538695,0.385466,-9.859323,-0.026913,-0.02558,0.020784
esp32-c3-002,5,86,136914,0.56982,0.378284,-9.847352,-0.02638,-0.02638,0.021317
esp32-c3-002,5,87,136934,0.579397,0.397437,-9.861717,-0.026646,-0.025314,0.021051
esp32-c3-002,5,88,136954,0.572214,0.399832,-9.85214,-0.026113,-0.02638,0.021051
esp32-c3-002,5,89,136974,0.548272,0.366313,-9.885659,-0.026113,-0.02638,0.021583
esp32-c3-002,5,90,136994,0.553061,0.339977,-9.883265,-0.026913,-0.02638,0.022116
esp32-c3-002,5,91,137014,0.536301,0.347159,-9.868899,-0.02638,-0.026113,0.020784
esp32-c3-002,5,92,137034,0.529119,0.351948,-9.842564,-0.026646,-0.026113,0.019452
esp32-c3-002,5,93,137054,0.545878,0.366313,-9.866506,-0.02638,-0.027446,0.018919
esp32-c3-002,5,94,137074,0.565032,0.378284,-9.840169,-0.02638,-0.026646,0.019185
esp32-c3-002,5,95,137094,0.553061,0.385466,-9.847352,-0.025847,-0.026113,0.019985
esp32-c3-002,5,96,137114,0.560243,0.383072,-9.842564,-0.02638,-0.027179,0.021317
esp32-c3-002,5,97,137134,0.574608,0.392649,-9.847352,-0.026646,-0.02558,0.021583
esp32-c3-002,5,98,137154,0.567426,0.385466,-9.873688,-0.025847,-0.02638,0.022649
esp32-c3-002,5,99,137174,0.545878,0.363919,-9.840169,-0.02638,-0.027446,0.022916
esp32-c3-002,6,0,137281,0.476446,0.349553,-9.832987,-0.027179,-0.025314,0.02185
esp32-c3-002,6,1,137300,0.526724,0.351948,-9.856929,-0.025847,-0.026646,0.020518
esp32-c3-002,6,2,137320,0.526724,0.383072,-9.861717,-0.026113,-0.027179,0.019185
esp32-c3-002,6,3,137340,0.521936,0.373495,-9.82341,-0.026913,-0.027446,0.018652
esp32-c3-002,6,4,137360,0.545878,0.366313,-9.849746,-0.025314,-0.027712,0.019452
esp32-c3-002,6,5,137380,0.593762,0.368707,-9.847352,-0.023982,-0.03011,0.020251
esp32-c3-002,6,6,137400,0.596156,0.392649,-9.878476,-0.026113,-0.027712,0.02185
esp32-c3-002,6,7,137420,0.565032,0.385466,-9.854534,-0.02638,-0.026646,0.023182
esp32-c3-002,6,8,137440,0.545878,0.35913,-9.832987,-0.026913,-0.026913,0.023449
esp32-c3-002,6,9,137461,0.519542,0.361524,-9.85214,-0.02558,-0.02638,0.023182
esp32-c3-002,6,10,137480,0.481235,0.316035,-9.85214,-0.02558,-0.027446,0.02185
esp32-c3-002,6,11,137500,0.469264,0.344765,-9.878476,-0.026113,-0.026913,0.019452
esp32-c3-002,6,12,137520,0.529119,0.366313,-9.847352,-0.026113,-0.02638,0.018652
esp32-c3-002,6,13,137540,0.572214,0.378284,-9.847352,-0.02638,-0.027179,0.018386
esp32-c3-002,6,14,137561,0.603339,0.395043,-9.854534,-0.026113,-0.027979,0.020518
esp32-c3-002,6,15,137580,0.579397,0.40462,-9.878476,-0.02558,-0.026646,0.021051
esp32-c3-002,6,16,137600,0.553061,0.378284,-9.864111,-0.026113,-0.026913,0.022649
esp32-c3-002,6,17,137620,0.54109,0.351948,-9.871294,-0.026113,-0.026646,0.022916
esp32-c3-002,6,18,137640,0.538695,0.361524,-9.883265,-0.02558,-0.027179,0.022116
esp32-c3-002,6,19,137660,0.509965,0.339977,-9.868899,-0.027179,-0.026113,0.021317
esp32-c3-002,6,20,137680,0.502782,0.371101,-9.864111,-0.026646,-0.026646,0.021051
esp32-c3-002,6,21,137700,0.572214,0.373495,-9.840169,-0.02638,-0.02638,0.02185
esp32-c3-002,6,22,137720,0.586579,0.37589,-9.856929,-0.02638,-0.027179,0.021583
esp32-c3-002,6,23,137740,0.514753,0.368707,-9.835381,-0.026646,-0.027446,0.020784
esp32-c3-002,6,24,137760,0.500388,0.342371,-9.871294,-0.024781,-0.026646,0.02185
esp32-c3-002,6,25,137780,0.526724,0.351948,-9.864111,-0.02638,-0.026913,0.019718
esp32-c3-002,6,26,137800,0.557849,0.378284,-9.866506,-0.026646,-0.026646,0.019718
esp32-c3-002,6,27,137820,0.560243,0.361524,-9.878476,-0.02638,-0.025314,0.019985
esp32-c3-002,6,28,137840,0.565032,0.368707,-9.868899,-0.027179,-0.024515,0.021317
esp32-c3-002,6,29,137860,0.538695,0.385466,-9.880871,-0.028511,-0.023715,0.02185
esp32-c3-002,6,30,137880,0.550666,0.371101,-9.85214,-0.028778,-0.022116,0.021051
esp32-c3-002,6,31,137900,0.555455,0.37589,-9.849746,-0.027979,-0.023715,0.022649
esp32-c3-002,6,32,137920,0.533907,0.35913,-9.89763,-0.026646,-0.025314,0.022916
esp32-c3-002,6,33,137940,0.517148,0.37589,-9.847352,-0.02638,-0.025847,0.022383
esp32-c3-002,6,34,137960,0.536301,0.373495,-9.856929,-0.02638,-0.027179,0.021583
esp32-c3-002,6,35,137980,0.538695,0.35913,-9.847352,-0.02558,-0.02638,0.020518
esp32-c3-002,6,36,138000,0.529119,0.373495,-9.835381,-0.026646,-0.02558,0.021317
esp32-c3-002,6,37,138020,0.557849,0.387861,-9.840169,-0.026646,-0.026913,0.021051
esp32-c3-002,6,38,138040,0.56982,0.373495,-9.828198,-0.02638,-0.026913,0.02185
esp32-c3-002,6,39,138060,0.531513,0.371101,-9.82341,-0.026646,-0.02558,0.022649
esp32-c3-002,6,40,138080,0.533907,0.361524,-9.866506,-0.026646,-0.02638,0.023449
esp32-c3-002,6,41,138100,0.555455,0.354342,-9.849746,-0.02638,-0.02558,0.022383
esp32-c3-002,6,42,138120,0.560243,0.361524,-9.873688,-0.026113,-0.025847,0.02185
esp32-c3-002,6,43,138140,0.517148,0.349553,-9.871294,-0.02638,-0.025847,0.021583
esp32-c3-002,6,44,138160,0.526724,0.368707,-9.864111,-0.02638,-0.02638,0.021583
esp32-c3-002,6,45,138181,0.538695,0.35913,-9.859323,-0.026646,-0.026113,0.021317
esp32-c3-002,6,46,138200,0.550666,0.363919,-9.85214,-0.026646,-0.026646,0.021317
esp32-c3-002,6,47,138220,0.577003,0.368707,-9.868899,-0.02638,-0.025314,0.020784
esp32-c3-002,6,48,138240,0.543484,0.383072,-9.873688,-0.027446,-0.023715,0.021583
esp32-c3-002,6,49,138260,0.548272,0.351948,-9.876082,-0.027979,-0.023982,0.022116
esp32-c3-002,6,50,138280,0.529119,0.349553,-9.85214,-0.027979,-0.023982,0.022649
esp32-c3-002,6,51,138300,0.521936,0.363919,-9.885659,-0.026913,-0.024515,0.021051
esp32-c3-002,6,52,138320,0.533907,0.383072,-9.856929,-0.027979,-0.025314,0.021583
esp32-c3-002,6,53,138340,0.545878,0.392649,-9.871294,-0.026646,-0.026113,0.022116
esp32-c3-002,6,54,138360,0.543484,0.361524,-9.864111,-0.026913,-0.025047,0.021051
esp32-c3-002,6,55,138380,0.555455,0.37589,-9.85214,-0.026646,-0.026113,0.021583
esp32-c3-002,6,56,138400,0.543484,0.378284,-9.849746,-0.026913,-0.026113,0.022649
esp32-c3-002,6,57,138420,0.529119,0.35913,-9.859323,-0.027446,-0.025847,0.022116
esp32-c3-002,6,58,138440,0.538695,0.339977,-9.868899,-0.02638,-0.026113,0.020784
esp32-c3-002,6,59,138460,0.548272,0.35913,-9.864111,-0.02638,-0.026646,0.020518
esp32-c3-002,6,60,138480,0.553061,0.354342,-9.876082,-0.026913,-0.026646,0.020251
esp32-c3-002,6,61,138500,0.557849,0.371101,-9.849746,-0.02638,-0.026113,0.020784
esp32-c3-002,6,62,138520,0.550666,0.385466,-9.883265,-0.026646,-0.025314,0.021583
esp32-c3-002,6,63,138540,0.553061,0.37589,-9.847352,-0.027179,-0.026113,0.022116
esp32-c3-002,6,64,138560,0.555455,0.361524,-9.849746,-0.026913,-0.026646,0.02185
esp32-c3-002,6,65,138580,0.531513,0.366313,-9.85214,-0.025847,-0.025847,0.022116
esp32-c3-002,6,66,138600,0.550666,0.366313,-9.842564,-0.02638,-0.02558,0.020784
esp32-c3-002,6,67,138620,0.550666,0.368707,-9.849746,-0.026646,-0.025847,0.020784
esp32-c3-002,6,68,138640,0.550666,0.371101,-9.873688,-0.026646,-0.025847,0.020784
esp32-c3-002,6,69,138660,0.536301,0.37589,-9.876082,-0.026113,-0.02638,0.021317
esp32-c3-002,6,70,138680,0.54109,0.371101,-9.830592,-0.026646,-0.026113,0.021317
esp32-c3-002,6,71,138700,0.543484,0.373495,-9.854534,-0.027179,-0.026113,0.02185
esp32-c3-002,6,72,138720,0.543484,0.356736,-9.828198,-0.026646,-0.02638,0.02185
esp32-c3-002,6,73,138740,0.533907,0.366313,-9.854534,-0.026646,-0.02558,0.021317
esp32-c3-002,6,74,138760,0.550666,0.35913,-9.842564,-0.02638,-0.026113,0.021583
esp32-c3-002,6,75,138780,0.550666,0.368707,-9.847352,-0.026113,-0.02638,0.022116
esp32-c3-002,6,76,138800,0.553061,0.349553,-9.830592,-0.026913,-0.026113,0.021583
esp32-c3-002,6,77,138820,0.548272,0.356736,-9.821015,-0.026913,-0.02638,0.021583
esp32-c3-002,6,78,138840,0.555455,0.366313,-9.859323,-0.026113,-0.025314,0.020784
esp32-c3-002,6,79,138860,0.548272,0.371101,-9.856929,-0.025847,-0.02638,0.020784
esp32-c3-002,6,80,138880,0.555455,0.35913,-9.873688,-0.027179,-0.02558,0.020518
esp32-c3-002,6,81,138900,0.557849,0.363919,-9.876082,-0.026646,-0.026113,0.021317
esp32-c3-002,6,82,138920,0.557849,0.371101,-9.876082,-0.026913,-0.026113,0.021583
esp32-c3-002,6,83,138940,0.553061,0.366313,-9.864111,-0.026646,-0.025847,0.021583
esp32-c3-002,6,84,138960,0.548272,0.371101,-9.847352,-0.026913,-0.025847,0.022116
esp32-c3-002,6,85,138980,0.536301,0.366313,-9.864111,-0.02638,-0.02638,0.021583
esp32-c3-002,6,86,139000,0.550666,0.37589,-9.868899,-0.026646,-0.025847,0.021583
esp32-c3-002,6,87,139020,0.553061,0.37589,-9.866506,-0.02638,-0.026113,0.020784
esp32-c3-002,6,88,139040,0.548272,0.385466,-9.880871,-0.026113,-0.026113,0.021317
esp32-c3-002,6,89,139060,0.543484,0.373495,-9.864111,-0.026113,-0.026113,0.021583
esp32-c3-002,6,90,139080,0.548272,0.380678,-9.883265,-0.026913,-0.026646,0.020784
esp32-c3-002,6,91,139100,0.543484,0.344765,-9.82341,-0.025847,-0.02558,0.021583
esp32-c3-002,6,92,139120,0.548272,0.378284,-9.868899,-0.026913,-0.025847,0.02185
esp32-c3-002,6,93,139140,0.543484,0.37589,-9.832987,-0.026113,-0.02638,0.022116
esp32-c3-002,6,94,139160,0.538695,0.368707,-9.849746,-0.025847,-0.02558,0.020518
esp32-c3-002,6,95,139180,0.545878,0.378284,-9.847352,-0.025847,-0.02638,0.020518
esp32-c3-002,6,96,139200,0.56982,0.383072,-9.859323,-0.026913,-0.025314,0.021051
esp32-c3-002,6,97,139220,0.545878,0.37589,-9.856929,-0.027179,-0.026646,0.021317
esp32-c3-002,6,98,139240,0.56982,0.371101,-9.859323,-0.027179,-0.025847,0.021583
esp32-c3-002,6,99,139260,0.543484,0.37589,-9.825804,-0.026913,-0.026646,0.022383
esp32-c3-002,7,0,139369,0.538695,0.378284,-9.854534,-0.026113,-0.02638,0.021583
esp32-c3-002,7,1,139388,0.562637,0.366313,-9.844957,-0.026913,-0.025847,0.021583
esp32-c3-002,7,2,139409,0.548272,0.356736,-9.828198,-0.02638,-0.026113,0.020784
esp32-c3-002,7,3,139428,0.550666,0.347159,-9.864111,-0.026913,-0.026646,0.021051
esp32-c3-002,7,4,139448,0.536301,0.366313,-9.85214,-0.026913,-0.025047,0.021051
esp32-c3-002,7,5,139468,0.545878,0.378284,-9.883265,-0.027712,-0.02558,0.020784
esp32-c3-002,7,6,139488,0.560243,0.383072,-9.856929,-0.027179,-0.026113,0.021051
esp32-c3-002,7,7,139508,0.562637,0.378284,-9.840169,-0.027446,-0.02558,0.02185
esp32-c3-002,7,8,139528,0.553061,0.368707,-9.85214,-0.026646,-0.025314,0.021583
esp32-c3-002,7,9,139548,0.545878,0.342371,-9.861717,-0.026646,-0.026113,0.021317
esp32-c3-002,7,10,139568,0.557849,0.356736,-9.861717,-0.026646,-0.02558,0.021051
esp32-c3-002,7,11,139588,0.543484,0.361524,-9.868899,-0.027179,-0.026113,0.021317
esp32-c3-002,7,12,139608,0.536301,0.380678,-9.842564,-0.026913,-0.02638,0.021051
esp32-c3-002,7,13,139628,0.550666,0.351948,-9.876082,-0.027446,-0.026646,0.020518
esp32-c3-002,7,14,139648,0.565032,0.361524,-9.89763,-0.026646,-0.026113,0.02185
esp32-c3-002,7,15,139668,0.543484,0.368707,-9.85214,-0.02638,-0.02558,0.021317
esp32-c3-002,7,16,139688,0.519542,0.356736,-9.868899,-0.026646,-0.02558,0.021583
esp32-c3-002,7,17,139708,0.54109,0.380678,-9.830592,-0.027179,-0.02558,0.021583
esp32-c3-002,7,18,139728,0.543484,0.349553,-9.876082,-0.026646,-0.02638,0.021317
esp32-c3-002,7,19,139748,0.553061,0.35913,-9.85214,-0.026113,-0.026113,0.021317
esp32-c3-002,7,20,139768,0.560243,0.368707,-9.895236,-0.026646,-0.024515,0.021051
esp32-c3-002,7,21,139788,0.543484,0.351948,-9.880871,-0.027179,-0.02558,0.02185
esp32-c3-002,7,22,139809,0.567426,0.363919,-9.856929,-0.026913,-0.025314,0.020518
esp32-c3-002,7,23,139828,0.560243,0.383072,-9.885659,-0.026646,-0.02638,0.021051
esp32-c3-002,7,24,139848,0.562637,0.380678,-9.878476,-0.026113,-0.026113,0.02185
esp32-c3-002,7,25,139868,0.545878,0.380678,-9.864111,-0.02638,-0.02638,0.02185
esp32-c3-002,7,26,139888,0.538695,0.344765,-9.873688,-0.026913,-0.027179,0.021583
esp32-c3-002,7,27,139909,0.550666,0.356736,-9.830592,-0.025847,-0.025847,0.022383
esp32-c3-002,7,28,139928,0.533907,0.354342,-9.864111,-0.026913,-0.026113,0.021317
esp32-c3-002,7,29,139948,0.54109,0.366313,-9.856929,-0.026646,-0.026113,0.021317
esp32-c3-002,7,30,139968,0.54109,0.368707,-9.868899,-0.02638,-0.02638,0.019985
esp32-c3-002,7,31,139988,0.550666,0.395043,-9.861717,-0.026646,-0.025314,0.02185
esp32-c3-002,7,32,140008,0.550666,0.385466,-9.856929,-0.026113,-0.02558,0.02185
esp32-c3-002,7,33,140028,0.557849,0.390255,-9.856929,-0.026913,-0.02638,0.021051
esp32-c3-002,7,34,140048,0.550666,0.378284,-9.856929,-0.02638,-0.025847,0.02185
esp32-c3-002,7,35,140068,0.548272,0.385466,-9.873688,-0.026646,-0.025314,0.022649
esp32-c3-002,7,36,140088,0.531513,0.368707,-9.854534,-0.026113,-0.02558,0.02185
esp32-c3-002,7,37,140108,0.538695,0.354342,-9.847352,-0.026646,-0.02558,0.02185
esp32-c3-002,7,38,140128,0.536301,0.371101,-9.866506,-0.026113,-0.026113,0.020518
esp32-c3-002,7,39,140148,0.553061,0.368707,-9.849746,-0.026913,-0.02638,0.018919
esp32-c3-002,7,40,140168,0.536301,0.373495,-9.864111,-0.027179,-0.02558,0.019452
esp32-c3-002,7,41,140188,0.54109,0.371101,-9.856929,-0.026913,-0.027446,0.019718
esp32-c3-002,7,42,140208,0.548272,0.366313,-9.861717,-0.026646,-0.025847,0.019985
esp32-c3-002,7,43,140228,0.548272,0.368707,-9.871294,-0.026646,-0.026113,0.021051
esp32-c3-002,7,44,140248,0.557849,0.37589,-9.864111,-0.026913,-0.025314,0.022649
esp32-c3-002,7,45,140268,0.550666,0.383072,-9.868899,-0.02638,-0.025047,0.02185
esp32-c3-002,7,46,140288,0.543484,0.347159,-9.856929,-0.026646,-0.025847,0.022916
esp32-c3-002,7,47,140308,0.526724,0.356736,-9.859323,-0.027446,-0.026646,0.021583
esp32-c3-002,7,48,140328,0.529119,0.371101,-9.840169,-0.026646,-0.026913,0.020251
esp32-c3-002,7,49,140348,0.536301,0.339977,-9.866506,-0.026646,-0.025047,0.019452
esp32-c3-002,7,50,140368,0.562637,0.371101,-9.888053,-0.026646,-0.025314,0.019452
esp32-c3-002,7,51,140388,0.517148,0.3304,-9.866506,-0.026646,-0.024515,0.020251
esp32-c3-002,7,52,140408,0.620098,0.383072,-9.938332,-0.028778,-0.024781,0.020784
esp32-c3-002,7,53,140429,0.562637,0.344765,-9.818622,-0.026113,-0.02638,0.022649
esp32-c3-002,7,54,140448,0.545878,0.378284,-9.828198,-0.02638,-0.02638,0.022649
esp32-c3-002,7,55,140468,0.533907,0.380678,-9.85214,-0.027179,-0.02558,0.022649
esp32-c3-002,7,56,140488,0.517148,0.361524,-9.873688,-0.027179,-0.02558,0.022649
esp32-c3-002,7,57,140508,0.493206,0.342371,-9.876082,-0.026913,-0.026113,0.02185
esp32-c3-002,7,58,140528,0.533907,0.35913,-9.844957,-0.026113,-0.026113,0.020251
esp32-c3-002,7,59,140548,0.553061,0.37589,-9.861717,-0.02638,-0.026646,0.020251
esp32-c3-002,7,60,140568,0.562637,0.387861,-9.873688,-0.025847,-0.025847,0.019985
esp32-c3-002,7,61,140588,0.577003,0.409408,-9.888053,-0.025847,-0.02638,0.020251
esp32-c3-002,7,62,140608,0.565032,0.385466,-9.847352,-0.026646,-0.025047,0.022383
esp32-c3-002,7,63,140628,0.553061,0.361524,-9.859323,-0.027179,-0.02638,0.022649
esp32-c3-002,7,64,140648,0.553061,0.371101,-9.85214,-0.026646,-0.02638,0.022383
esp32-c3-002,7,65,140668,0.512359,0.35913,-9.828198,-0.02638,-0.026113,0.021583
esp32-c3-002,7,66,140688,0.497994,0.35913,-9.868899,-0.02638,-0.026646,0.019985
esp32-c3-002,7,67,140708,0.512359,0.356736,-9.837775,-0.025047,-0.026646,0.020518
esp32-c3-002,7,68,140729,0.565032,0.35913,-9.854534,-0.02638,-0.026113,0.019452
esp32-c3-002,7,69,140748,0.572214,0.366313,-9.866506,-0.026913,-0.026113,0.020251
esp32-c3-002,7,70,140768,0.545878,0.378284,-9.871294,-0.026113,-0.025314,0.021317
esp32-c3-002,7,71,140788,0.560243,0.385466,-9.864111,-0.02558,-0.025847,0.021317
esp32-c3-002,7,72,140808,0.560243,0.37589,-9.82341,-0.026646,-0.025847,0.022383
esp32-c3-002,7,73,140828,0.565032,0.363919,-9.847352,-0.025314,-0.02638,0.02185
esp32-c3-002,7,74,140848,0.545878,0.371101,-9.902418,-0.026113,-0.026113,0.02185
esp32-c3-002,7,75,140868,0.538695,0.335188,-9.907207,-0.026646,-0.026913,0.021583
esp32-c3-002,7,76,140888,0.533907,0.35913,-9.830592,-0.026646,-0.025847,0.020784
esp32-c3-002,7,77,140908,0.536301,0.356736,-9.856929,-0.027446,-0.026646,0.021583
esp32-c3-002,7,78,140928,0.533907,0.363919,-9.835381,-0.02638,-0.026646,0.020518
esp32-c3-002,7,79,140948,0.519542,0.35913,-9.835381,-0.025847,-0.025847,0.021051
esp32-c3-002,7,80,140968,0.562637,0.363919,-9.856929,-0.026646,-0.025314,0.020518
esp32-c3-002,7,81,140988,0.555455,0.371101,-9.85214,-0.02638,-0.02638,0.019718
esp32-c3-002,7,82,141008,0.560243,0.373495,-9.842564,-0.025847,-0.026646,0.020784
esp32-c3-002,7,83,141028,0.56982,0.387861,-9.844957,-0.026113,-0.026113,0.020518
esp32-c3-002,7,84,141048,0.543484,0.383072,-9.856929,-0.026646,-0.026113,0.022116
esp32-c3-002,7,85,141068,0.555455,0.383072,-9.856929,-0.025847,-0.025314,0.022383
esp32-c3-002,7,86,141088,0.54109,0.373495,-9.832987,-0.025847,-0.026646,0.022916
esp32-c3-002,7,87,141108,0.52433,0.373495,-9.835381,-0.026113,-0.025047,0.022916
esp32-c3-002,7,88,141128,0.529119,0.354342,-9.842564,-0.026646,-0.026646,0.02185
esp32-c3-002,7,89,141148,0.519542,0.354342,-9.866506,-0.026646,-0.025314,0.022116
esp32-c3-002,7,90,141168,0.548272,0.363919,-9.864111,-0.027446,-0.025847,0.021051
esp32-c3-002,7,91,141188,0.545878,0.37589,-9.837775,-0.026913,-0.02638,0.02185
esp32-c3-002,7,92,141208,0.555455,0.387861,-9.85214,-0.026913,-0.02638,0.022383
esp32-c3-002,7,93,141228,0.543484,0.373495,-9.864111,-0.02638,-0.026913,0.022649
esp32-c3-002,7,94,141248,0.514753,0.349553,-9.861717,-0.026113,-0.026646,0.022383
esp32-c3-002,7,95,141268,0.512359,0.3304,-9.835381,-0.026913,-0.025314,0.021583
esp32-c3-002,7,96,141288,0.52433,0.349553,-9.85214,-0.02638,-0.026646,0.019985
esp32-c3-002,7,97,141308,0.545878,0.373495,-9.859323,-0.026913,-0.026646,0.019185
esp32-c3-002,7,98,141328,0.560243,0.366313,-9.878476,-0.026113,-0.025847,0.020784
esp32-c3-002,7,99,141348,0.560243,0.35913,-9.866506,-0.02638,-0.02638,0.021317
esp32-c3-002,8,0,141440,0.562637,0.380678,-9.883265,-0.026646,-0.025847,0.022383
esp32-c3-002,8,1,141459,0.521936,0.361524,-9.885659,-0.026113,-0.025847,0.021583
esp32-c3-002,8,2,141479,0.531513,0.351948,-9.890448,-0.026113,-0.02638,0.02185
esp32-c3-002,8,3,141500,0.52433,0.368707,-9.885659,-0.026913,-0.026913,0.021051
esp32-c3-002,8,4,141519,0.531513,0.383072,-9.883265,-0.02638,-0.02638,0.021317
esp32-c3-002,8,5,141539,0.536301,0.368707,-9.876082,-0.026913,-0.025314,0.020251
esp32-c3-002,8,6,141560,0.565032,0.37589,-9.856929,-0.02638,-0.025314,0.020251
esp32-c3-002,8,7,141579,0.560243,0.368707,-9.856929,-0.02638,-0.02558,0.021051
esp32-c3-002,8,8,141599,0.54109,0.368707,-9.895236,-0.026646,-0.02638,0.021583
esp32-c3-002,8,9,141619,0.548272,0.35913,-9.85214,-0.026646,-0.02638,0.021051
esp32-c3-002,8,10,141639,0.531513,0.349553,-9.864111,-0.02638,-0.026113,0.020518
esp32-c3-002,8,11,141659,0.52433,0.351948,-9.847352,-0.026913,-0.024515,0.020518
esp32-c3-002,8,12,141679,0.565032,0.363919,-9.828198,-0.026646,-0.025847,0.021317
esp32-c3-002,8,13,141699,0.572214,0.373495,-9.840169,-0.027179,-0.026113,0.021051
esp32-c3-002,8,14,141719,0.591368,0.385466,-9.866506,-0.02638,-0.025047,0.02185
esp32-c3-002,8,15,141739,0.553061,0.368707,-9.880871,-0.026113,-0.026646,0.02185
esp32-c3-002,8,16,141760,0.54109,0.368707,-9.861717,-0.026646,-0.025314,0.022116
esp32-c3-002,8,17,141779,0.548272,0.371101,-9.861717,-0.027179,-0.026113,0.022383
esp32-c3-002,8,18,141799,0.533907,0.387861,-9.864111,-0.027446,-0.026113,0.022116
esp32-c3-002,8,19,141819,0.555455,0.383072,-9.85214,-0.026113,-0.02638,0.021583
esp32-c3-002,8,20,141839,0.543484,0.380678,-9.873688,-0.026913,-0.02558,0.022383
esp32-c3-002,8,21,141860,0.536301,0.35913,-9.859323,-0.026646,-0.024515,0.023182
esp32-c3-002,8,22,141879,0.543484,0.349553,-9.830592,-0.026113,-0.025314,0.022649
esp32-c3-002,8,23,141899,0.545878,0.349553,-9.837775,-0.02638,-0.025847,0.021051
esp32-c3-002,8,24,141919,0.52433,0.356736,-9.861717,-0.02638,-0.02638,0.020784
esp32-c3-002,8,25,141939,0.529119,0.347159,-9.861717,-0.026113,-0.026646,0.020784
esp32-c3-002,8,26,141959,0.54109,0.356736,-9.854534,-0.026913,-0.026646,0.020784
esp32-c3-002,8,27,141979,0.555455,0.371101,-9.859323,-0.02558,-0.026646,0.020784
esp32-c3-002,8,28,141999,0.550666,0.383072,-9.844957,-0.026113,-0.025847,0.020784
esp32-c3-002,8,29,142019,0.550666,0.395043,-9.849746,-0.026913,-0.026913,0.02185
esp32-c3-002,8,30,142039,0.531513,0.368707,-9.871294,-0.026913,-0.02558,0.022116
esp32-c3-002,8,31,142059,0.531513,0.349553,-9.859323,-0.026913,-0.025847,0.021051
esp32-c3-002,8,32,142079,0.531513,0.373495,-9.883265,-0.026113,-0.025847,0.021583
esp32-c3-002,8,33,142099,0.555455,0.361524,-9.866506,-0.026646,-0.026646,0.022383
esp32-c3-002,8,34,142119,0.562637,0.361524,-9.866506,-0.026646,-0.02638,0.022116
esp32-c3-002,8,35,142139,0.538695,0.361524,-9.864111,-0.026646,-0.026113,0.022116
esp32-c3-002,8,36,142159,0.533907,0.383072,-9.859323,-0.026113,-0.025847,0.02185
esp32-c3-002,8,37,142179,0.543484,0.368707,-9.876082,-0.02638,-0.026646,0.02185
esp32-c3-002,8,38,142199,0.521936,0.354342,-9.856929,-0.026646,-0.025847,0.020784
esp32-c3-002,8,39,142219,0.538695,0.371101,-9.859323,-0.026913,-0.025847,0.020251
esp32-c3-002,8,40,142239,0.557849,0.363919,-9.878476,-0.026113,-0.025314,0.020518
esp32-c3-002,8,41,142259,0.572214,0.390255,-9.866506,-0.026913,-0.02558,0.021051
esp32-c3-002,8,42,142279,0.550666,0.383072,-9.844957,-0.026913,-0.02558,0.02185
esp32-c3-002,8,43,142299,0.548272,0.385466,-9.866506,-0.026913,-0.025847,0.021583
esp32-c3-002,8,44,142319,0.545878,0.373495,-9.900024,-0.026913,-0.024781,0.022649
esp32-c3-002,8,45,142339,0.521936,0.349553,-9.868899,-0.026646,-0.02638,0.022116
esp32-c3-002,8,46,142359,0.521936,0.366313,-9.871294,-0.02638,-0.025847,0.020784
esp32-c3-002,8,47,142379,0.52433,0.35913,-9.85214,-0.02638,-0.026913,0.020251
esp32-c3-002,8,48,142399,0.538695,0.35913,-9.866506,-0.026646,-0.02638,0.019452
esp32-c3-002,8,49,142419,0.562637,0.385466,-9.856929,-0.02638,-0.026646,0.020784
esp32-c3-002,8,50,142439,0.56982,0.383072,-9.880871,-0.026113,-0.026113,0.022116
esp32-c3-002,8,51,142459,0.574608,0.407014,-9.837775,-0.027179,-0.026646,0.022116
esp32-c3-002,8,52,142479,0.538695,0.35913,-9.835381,-0.026646,-0.025314,0.021317
esp32-c3-002,8,53,142499,0.553061,0.356736,-9.864111,-0.026913,-0.025314,0.021583
esp32-c3-002,8,54,142519,0.531513,0.351948,-9.873688,-0.025847,-0.02638,0.021051
esp32-c3-002,8,55,142539,0.536301,0.368707,-9.842564,-0.025847,-0.025314,0.020518
esp32-c3-002,8,56,142559,0.54109,0.354342,-9.847352,-0.025847,-0.02558,0.021317
esp32-c3-002,8,57,142579,0.557849,0.383072,-9.85214,-0.025847,-0.02638,0.021051
esp32-c3-002,8,58,142599,0.548272,0.378284,-9.864111,-0.026646,-0.026113,0.021051
esp32-c3-002,8,59,142619,0.553061,0.361524,-9.861717,-0.026646,-0.025847,0.022649
esp32-c3-002,8,60,142639,0.553061,0.383072,-9.866506,-0.027179,-0.024515,0.022116
esp32-c3-002,8,61,142659,0.54109,0.371101,-9.873688,-0.026646,-0.02558,0.02185
esp32-c3-002,8,62,142680,0.548272,0.371101,-9.861717,-0.026646,-0.02638,0.021317
esp32-c3-002,8,63,142699,0.545878,0.380678,-9.859323,-0.02638,-0.02638,0.022116
esp32-c3-002,8,64,142719,0.553061,0.373495,-9.844957,-0.026913,-0.026113,0.021317
esp32-c3-002,8,65,142739,0.531513,0.363919,-9.861717,-0.026646,-0.02638,0.021317
esp32-c3-002,8,66,142759,0.545878,0.366313,-9.861717,-0.026913,-0.026646,0.020518
esp32-c3-002,8,67,142779,0.548272,0.366313,-9.866506,-0.026913,-0.026113,0.021317
esp32-c3-002,8,68,142799,0.555455,0.373495,-9.835381,-0.026646,-0.025847,0.020784
esp32-c3-002,8,69,142819,0.567426,0.366313,-9.847352,-0.02638,-0.026113,0.02185
esp32-c3-002,8,70,142839,0.557849,0.356736,-9.842564,-0.025847,-0.026646,0.022649
esp32-c3-002,8,71,142859,0.54109,0.363919,-9.861717,-0.026646,-0.025847,0.022916
esp32-c3-002,8,72,142879,0.54109,0.373495,-9.861717,-0.026913,-0.026913,0.021583
esp32-c3-002,8,73,142899,0.555455,0.373495,-9.878476,-0.025314,-0.026113,0.02185
esp32-c3-002,8,74,142919,0.543484,0.371101,-9.883265,-0.026646,-0.025314,0.02185
esp32-c3-002,8,75,142939,0.521936,0.347159,-9.854534,-0.026646,-0.026113,0.022383
esp32-c3-002,8,76,142959,0.538695,0.347159,-9.840169,-0.026646,-0.02638,0.020784
esp32-c3-002,8,77,142979,0.529119,0.37589,-9.864111,-0.026913,-0.026646,0.020518
esp32-c3-002,8,78,142999,0.555455,0.383072,-9.82341,-0.026913,-0.026646,0.020251
esp32-c3-002,8,79,143019,0.562637,0.383072,-9.864111,-0.026113,-0.025847,0.019985
esp32-c3-002,8,80,143039,0.565032,0.387861,-9.842564,-0.026113,-0.025847,0.021051
esp32-c3-002,8,81,143059,0.581791,0.371101,-9.885659,-0.02638,-0.02638,0.022649
esp32-c3-002,8,82,143079,0.536301,0.35913,-9.878476,-0.026913,-0.026113,0.022116
esp32-c3-002,8,83,143099,0.529119,0.351948,-9.883265,-0.026646,-0.02558,0.02185
esp32-c3-002,8,84,143119,0.550666,0.347159,-9.859323,-0.027446,-0.025847,0.02185
esp32-c3-002,8,85,143139,0.538695,0.35913,-9.825804,-0.026913,-0.025314,0.022116
esp32-c3-002,8,86,143159,0.562637,0.383072,-9.878476,-0.026913,-0.025314,0.022916
esp32-c3-002,8,87,143179,0.533907,0.363919,-9.861717,-0.026113,-0.02558,0.022383
esp32-c3-002,8,88,143199,0.497994,0.342371,-9.861717,-0.02558,-0.02558,0.021583
esp32-c3-002,8,89,143219,0.486023,0.337582,-9.876082,-0.026113,-0.02558,0.019185
esp32-c3-002,8,90,143239,0.536301,0.373495,-9.85214,-0.02638,-0.025047,0.018919
esp32-c3-002,8,91,143259,0.591368,0.37589,-9.876082,-0.02638,-0.026113,0.019718
esp32-c3-002,8,92,143279,0.608127,0.40462,-9.873688,-0.027179,-0.025847,0.020784
esp32-c3-002,8,93,143299,0.581791,0.402226,-9.878476,-0.027712,-0.025047,0.022916
esp32-c3-002,8,94,143319,0.536301,0.354342,-9.866506,-0.026646,-0.025847,0.024515
esp32-c3-002,8,95,143339,0.512359,0.351948,-9.847352,-0.026113,-0.02558,0.023715
esp32-c3-002,8,96,143359,0.505177,0.356736,-9.821015,-0.026913,-0.025847,0.022649
esp32-c3-002,8,97,143379,0.514753,0.342371,-9.900024,-0.026113,-0.02558,0.020518
esp32-c3-002,8,98,143399,0.545878,0.363919,-9.890448,-0.027179,-0.02558,0.019452
esp32-c3-002,8,99,143419,0.550666,0.383072,-9.849746,-0.027446,-0.025314,0.018386
esp32-c3-002,9,0,143519,0.565032,0.380678,-9.878476,-0.026913,-0.025314,0.022916
esp32-c3-002,9,1,143538,0.52433,0.349553,-9.854534,-0.026646,-0.025314,0.022649
esp32-c3-002,9,2,143559,0.517148,0.363919,-9.871294,-0.02638,-0.025047,0.02185
esp32-c3-002,9,3,143578,0.529119,0.371101,-9.878476,-0.02638,-0.026113,0.021583
esp32-c3-002,9,4,143598,0.543484,0.387861,-9.85214,-0.026646,-0.025314,0.021583
esp32-c3-002,9,5,143618,0.560243,0.368707,-9.828198,-0.026646,-0.026646,0.020251
esp32-c3-002,9,6,143638,0.553061,0.380678,-9.844957,-0.026113,-0.02558,0.021051
esp32-c3-002,9,7,143658,0.567426,0.37589,-9.885659,-0.025847,-0.025314,0.022116
esp32-c3-002,9,8,143678,0.572214,0.371101,-9.859323,-0.026646,-0.025314,0.022916
esp32-c3-002,9,9,143698,0.555455,0.380678,-9.871294,-0.027179,-0.025314,0.023715
esp32-c3-002,9,10,143718,0.54109,0.354342,-9.856929,-0.026913,-0.024781,0.023982
esp32-c3-002,9,11,143738,0.543484,0.371101,-9.835381,-0.027179,-0.025847,0.023715
esp32-c3-002,9,12,143758,0.529119,0.339977,-9.849746,-0.02638,-0.02638,0.022383
esp32-c3-002,9,13,143778,0.521936,0.3304,-9.849746,-0.026646,-0.02638,0.021051
esp32-c3-002,9,14,143798,0.531513,0.347159,-9.895236,-0.02638,-0.026113,0.020518
esp32-c3-002,9,15,143819,0.548272,0.366313,-9.861717,-0.026113,-0.027446,0.019718
esp32-c3-002,9,16,143838,0.579397,0.385466,-9.859323,-0.025847,-0.02638,0.021051
esp32-c3-002,9,17,143858,0.581791,0.411803,-9.837775,-0.025847,-0.026646,0.021317
esp32-c3-002,9,18,143878,0.574608,0.383072,-9.847352,-0.026113,-0.027179,0.022383
esp32-c3-002,9,19,143898,0.531513,0.356736,-9.854534,-0.026913,-0.025847,0.022916
esp32-c3-002,9,20,143918,0.531513,0.344765,-9.85214,-0.026646,-0.025314,0.022116
esp32-c3-002,9,21,143938,0.538695,0.347159,-9.866506,-0.025847,-0.025847,0.02185
esp32-c3-002,9,22,143958,0.543484,0.349553,-9.854534,-0.026646,-0.026113,0.021051
esp32-c3-002,9,23,143978,0.545878,0.373495,-9.876082,-0.02638,-0.025847,0.019985
esp32-c3-002,9,24,143998,0.548272,0.378284,-9.871294,-0.026913,-0.025847,0.019985
esp32-c3-002,9,25,144018,0.562637,0.371101,-9.828198,-0.025847,-0.026913,0.020251
esp32-c3-002,9,26,144038,0.56982,0.371101,-9.830592,-0.02638,-0.026113,0.020784
esp32-c3-002,9,27,144058,0.557849,0.392649,-9.873688,-0.02638,-0.026646,0.022116
esp32-c3-002,9,28,144078,0.54109,0.380678,-9.883265,-0.027446,-0.02638,0.022649
esp32-c3-002,9,29,144098,0.572214,0.378284,-9.876082,-0.02638,-0.024781,0.022116
esp32-c3-002,9,30,144118,0.52433,0.37589,-9.876082,-0.026646,-0.025047,0.021583
esp32-c3-002,9,31,144138,0.517148,0.354342,-9.868899,-0.026646,-0.02638,0.021051
esp32-c3-002,9,32,144158,0.536301,0.351948,-9.842564,-0.027179,-0.026113,0.021051
esp32-c3-002,9,33,144178,0.536301,0.361524,-9.864111,-0.02638,-0.026113,0.019718
esp32-c3-002,9,34,144198,0.538695,0.366313,-9.840169,-0.02638,-0.025847,0.020784
esp32-c3-002,9,35,144218,0.550666,0.373495,-9.854534,-0.025847,-0.02558,0.019985
esp32-c3-002,9,36,144238,0.536301,0.378284,-9.849746,-0.02558,-0.02558,0.020518
esp32-c3-002,9,37,144258,0.579397,0.37589,-9.844957,-0.026646,-0.02558,0.021583
esp32-c3-002,9,38,144278,0.538695,0.361524,-9.861717,-0.02638,-0.026113,0.022116
esp32-c3-002,9,39,144298,0.553061,0.373495,-9.840169,-0.026913,-0.02638,0.022116
esp32-c3-002,9,40,144319,0.562637,0.371101,-9.856929,-0.026646,-0.02638,0.022383
esp32-c3-002,9,41,144338,0.538695,0.354342,-9.844957,-0.026113,-0.02558,0.022116
esp32-c3-002,9,42,144358,0.538695,0.361524,-9.85214,-0.02558,-0.02638,0.021317
esp32-c3-002,9,43,144378,0.54109,0.37589,-9.895236,-0.027179,-0.026646,0.020518
esp32-c3-002,9,44,144398,0.52433,0.371101,-9.866506,-0.026113,-0.026646,0.020518
esp32-c3-002,9,45,144418,0.567426,0.356736,-9.854534,-0.02638,-0.02558,0.021051
esp32-c3-002,9,46,144438,0.565032,0.373495,-9.849746,-0.026113,-0.02638,0.021051
esp32-c3-002,9,47,144458,0.538695,0.37589,-9.830592,-0.026113,-0.026646,0.021583
esp32-c3-002,9,48,144478,0.533907,0.351948,-9.900024,-0.02638,-0.02638,0.020784
esp32-c3-002,9,49,144498,0.536301,0.366313,-9.873688,-0.026113,-0.026913,0.022383
esp32-c3-002,9,50,144518,0.553061,0.378284,-9.866506,-0.026113,-0.02638,0.021051
esp32-c3-002,9,51,144538,0.54109,0.366313,-9.849746,-0.025847,-0.027446,0.021051
esp32-c3-002,9,52,144558,0.533907,0.37589,-9.890448,-0.02558,-0.027446,0.021051
esp32-c3-002,9,53,144578,0.555455,0.368707,-9.837775,-0.026113,-0.026913,0.02185
esp32-c3-002,9,54,144598,0.565032,0.356736,-9.856929,-0.02638,-0.02638,0.022916
esp32-c3-002,9,55,144618,0.557849,0.361524,-9.866506,-0.02638,-0.026113,0.022116
esp32-c3-002,9,56,144638,0.529119,0.347159,-9.885659,-0.026646,-0.027446,0.020784
esp32-c3-002,9,57,144658,0.538695,0.349553,-9.880871,-0.026113,-0.025847,0.020518
esp32-c3-002,9,58,144678,0.536301,0.373495,-9.859323,-0.02558,-0.026913,0.019985
esp32-c3-002,9,59,144698,0.577003,0.366313,-9.866506,-0.025847,-0.026646,0.020784
esp32-c3-002,9,60,144718,0.56982,0.368707,-9.835381,-0.02558,-0.025847,0.02185
esp32-c3-002,9,61,144738,0.536301,0.35913,-9.861717,-0.02638,-0.026646,0.022649
esp32-c3-002,9,62,144758,0.526724,0.354342,-9.85214,-0.026913,-0.025847,0.022649
esp32-c3-002,9,63,144778,0.519542,0.363919,-9.883265,-0.026113,-0.026646,0.022916
esp32-c3-002,9,64,144798,0.512359,0.366313,-9.866506,-0.026646,-0.025847,0.021051
esp32-c3-002,9,65,144818,0.536301,0.351948,-9.873688,-0.02638,-0.026113,0.021051
esp32-c3-002,9,66,144838,0.54109,0.380678,-9.859323,-0.02638,-0.025847,0.02185
esp32-c3-002,9,67,144858,0.536301,0.366313,-9.876082,-0.02638,-0.025047,0.021317
esp32-c3-002,9,68,144878,0.567426,0.356736,-9.885659,-0.02638,-0.02558,0.021051
esp32-c3-002,9,69,144898,0.54109,0.361524,-9.861717,-0.02638,-0.026646,0.021583
esp32-c3-002,9,70,144918,0.557849,0.363919,-9.842564,-0.026913,-0.025314,0.022116
esp32-c3-002,9,71,144939,0.557849,0.371101,-9.844957,-0.02638,-0.025314,0.022383
esp32-c3-002,9,72,144958,0.553061,0.378284,-9.837775,-0.026646,-0.025314,0.022116
esp32-c3-002,9,73,144978,0.538695,0.37589,-9.85214,-0.026913,-0.025847,0.022116
esp32-c3-002,9,74,144998,0.52433,0.35913,-9.876082,-0.026646,-0.025847,0.021583
esp32-c3-002,9,75,145018,0.529119,0.361524,-9.900024,-0.026646,-0.025847,0.021051
esp32-c3-002,9,76,145038,0.531513,0.349553,-9.861717,-0.02638,-0.026913,0.021317
esp32-c3-002,9,77,145058,0.560243,0.371101,-9.847352,-0.027179,-0.026113,0.021583
esp32-c3-002,9,78,145078,0.562637,0.37589,-9.868899,-0.026646,-0.02558,0.021317
esp32-c3-002,9,79,145098,0.548272,0.35913,-9.868899,-0.02638,-0.025314,0.022649
esp32-c3-002,9,80,145118,0.536301,0.368707,-9.856929,-0.026646,-0.02558,0.020784
esp32-c3-002,9,81,145138,0.517148,0.354342,-9.861717,-0.02638,-0.025847,0.021051
esp32-c3-002,9,82,145158,0.543484,0.371101,-9.854534,-0.02638,-0.026113,0.020251
esp32-c3-002,9,83,145178,0.514753,0.368707,-9.890448,-0.02558,-0.02638,0.020251
esp32-c3-002,9,84,145198,0.550666,0.363919,-9.864111,-0.026113,-0.026646,0.019985
esp32-c3-002,9,85,145218,0.553061,0.385466,-9.861717,-0.026646,-0.02558,0.020784
esp32-c3-002,9,86,145239,0.562637,0.378284,-9.849746,-0.02638,-0.02558,0.019718
esp32-c3-002,9,87,145258,0.567426,0.356736,-9.847352,-0.02638,-0.025847,0.02185
esp32-c3-002,9,88,145278,0.572214,0.383072,-9.873688,-0.026646,-0.025314,0.021317
esp32-c3-002,9,89,145298,0.555455,0.373495,-9.856929,-0.026913,-0.024781,0.02185
esp32-c3-002,9,90,145319,0.548272,0.356736,-9.876082,-0.025847,-0.026646,0.021583
esp32-c3-002,9,91,145339,0.519542,0.351948,-9.861717,-0.026646,-0.02558,0.021051
esp32-c3-002,9,92,145358,0.538695,0.390255,-9.888053,-0.026113,-0.026113,0.020784
esp32-c3-002,9,93,145378,0.545878,0.356736,-9.880871,-0.026913,-0.02638,0.019985
esp32-c3-002,9,94,145398,0.550666,0.380678,-9.832987,-0.026646,-0.026646,0.020784
esp32-c3-002,9,95,145418,0.519542,0.373495,-9.849746,-0.026113,-0.026113,0.020518
esp32-c3-002,9,96,145438,0.521936,0.371101,-9.873688,-0.026646,-0.02638,0.021051
esp32-c3-002,9,97,145458,0.560243,0.354342,-9.832987,-0.026113,-0.025047,0.022116
esp32-c3-002,9,98,145478,0.550666,0.371101,-9.900024,-0.026113,-0.026913,0.02185
esp32-c3-002,9,99,145498,0.514753,0.347159,-9.866506,-0.026646,-0.026113,0.021583
esp32-c3-002,10,0,145593,0.521936,0.35913,-9.878476,-0.026913,-0.025314,0.02185
esp32-c3-002,10,1,145612,0.531513,0.347159,-9.880871,-0.026646,-0.025314,0.022116
esp32-c3-002,10,2,145632,0.54109,0.368707,-9.837775,-0.026113,-0.025847,0.021051
esp32-c3-002,10,3,145652,0.531513,0.356736,-9.844957,-0.026113,-0.02638,0.020784
esp32-c3-002,10,4,145672,0.52433,0.356736,-9.842564,-0.02558,-0.025847,0.019985
esp32-c3-002,10,5,145692,0.593762,0.399832,-9.854534,-0.02638,-0.025847,0.020251
esp32-c3-002,10,6,145712,0.591368,0.385466,-9.832987,-0.027446,-0.025847,0.022116
esp32-c3-002,10,7,145732,0.548272,0.37589,-9.864111,-0.025847,-0.025847,0.022383
esp32-c3-002,10,8,145752,0.52433,0.356736,-9.864111,-0.02638,-0.025314,0.022649
esp32-c3-002,10,9,145772,0.531513,0.339977,-9.842564,-0.026646,-0.024515,0.021583
esp32-c3-002,10,10,145792,0.526724,0.371101,-9.871294,-0.026113,-0.025047,0.021583
esp32-c3-002,10,11,145812,0.54109,0.368707,-9.844957,-0.027179,-0.026913,0.021051
esp32-c3-002,10,12,145832,0.557849,0.385466,-9.873688,-0.02638,-0.026913,0.02185
esp32-c3-002,10,13,145852,0.54109,0.378284,-9.868899,-0.02558,-0.027446,0.022116
esp32-c3-002,10,14,145872,0.553061,0.385466,-9.842564,-0.027179,-0.025314,0.021317
esp32-c3-002,10,15,145892,0.562637,0.35913,-9.864111,-0.025847,-0.026913,0.022116
esp32-c3-002,10,16,145912,0.536301,0.366313,-9.864111,-0.02638,-0.02638,0.021583
esp32-c3-002,10,17,145932,0.545878,0.354342,-9.859323,-0.02638,-0.025314,0.021583
esp32-c3-002,10,18,145952,0.553061,0.363919,-9.866506,-0.026113,-0.026113,0.021051
esp32-c3-002,10,19,145972,0.565032,0.368707,-9.907207,-0.026113,-0.025314,0.02185
esp32-c3-002,10,20,145992,0.562637,0.361524,-9.883265,-0.026113,-0.025847,0.022116
esp32-c3-002,10,21,146012,0.553061,0.380678,-9.904813,-0.025847,-0.027979,0.022649
esp32-c3-002,10,22,146032,0.562637,0.373495,-9.859323,-0.026913,-0.025847,0.023715
esp32-c3-002,10,23,146052,0.56982,0.371101,-9.847352,-0.02638,-0.024781,0.024781
esp32-c3-002,10,24,146073,0.548272,0.378284,-9.85214,-0.02638,-0.02638,0.024781
esp32-c3-002,10,25,146092,0.526724,0.368707,-9.854534,-0.025847,-0.02638,0.024781
esp32-c3-002,10,26,146112,0.488417,0.339977,-9.835381,-0.025847,-0.026646,0.023449
esp32-c3-002,10,27,146132,0.512359,0.347159,-9.821015,-0.02558,-0.027446,0.023182
esp32-c3-002,10,28,146152,0.497994,0.332794,-9.859323,-0.02558,-0.028511,0.021051
esp32-c3-002,10,29,146172,0.497994,0.354342,-9.847352,-0.026913,-0.026646,0.019452
esp32-c3-002,10,30,146192,0.577003,0.371101,-9.878476,-0.02638,-0.02638,0.020518
esp32-c3-002,10,31,146212,0.600945,0.399832,-9.868899,-0.026113,-0.027979,0.021317
esp32-c3-002,10,32,146232,0.572214,0.411803,-9.856929,-0.025047,-0.028778,0.022116
esp32-c3-002,10,33,146252,0.4956,0.347159,-9.890448,-0.026646,-0.026646,0.021051
esp32-c3-002,10,34,146272,0.52433,0.35913,-9.868899,-0.026913,-0.027179,0.022116
esp32-c3-002,10,35,146292,0.596156,0.373495,-9.854534,-0.02558,-0.027712,0.021317
esp32-c3-002,10,36,146312,0.560243,0.385466,-9.888053,-0.02638,-0.026646,0.020251
esp32-c3-002,10,37,146332,0.497994,0.35913,-9.842564,-0.026913,-0.02638,0.021051
esp32-c3-002,10,38,146352,0.490811,0.351948,-9.880871,-0.026113,-0.027179,0.021317
esp32-c3-002,10,39,146372,0.553061,0.363919,-9.856929,-0.025847,-0.027712,0.02185
esp32-c3-002,10,40,146392,0.612916,0.385466,-9.861717,-0.02638,-0.028511,0.019452
esp32-c3-002,10,41,146412,0.550666,0.354342,-9.854534,-0.025314,-0.027446,0.021583
esp32-c3-002,10,42,146432,0.507571,0.380678,-9.847352,-0.025847,-0.025847,0.022916
esp32-c3-002,10,43,146452,0.56982,0.37589,-9.876082,-0.02558,-0.027979,0.023182
esp32-c3-002,10,44,146472,0.545878,0.349553,-9.856929,-0.025314,-0.027979,0.023182
esp32-c3-002,10,45,146492,0.471658,0.344765,-9.864111,-0.02638,-0.029311,0.022383
esp32-c3-002,10,46,146512,0.500388,0.3304,-9.849746,-0.026113,-0.027179,0.021317
esp32-c3-002,10,47,146532,0.54109,0.347159,-9.876082,-0.026113,-0.026913,0.018919
esp32-c3-002,10,48,146552,0.565032,0.387861,-9.856929,-0.024248,-0.028778,0.018119
esp32-c3-002,10,49,146573,0.586579,0.390255,-9.878476,-0.025314,-0.028245,0.019185
esp32-c3-002,10,50,146592,0.574608,0.418985,-9.880871,-0.025847,-0.02558,0.022116
esp32-c3-002,10,51,146612,0.555455,0.40462,-9.883265,-0.027179,-0.024515,0.023982
esp32-c3-002,10,52,146632,0.567426,0.35913,-9.809045,-0.026913,-0.025847,0.02558
esp32-c3-002,10,53,146652,0.497994,0.332794,-9.861717,-0.027179,-0.025847,0.023715
esp32-c3-002,10,54,146672,0.474052,0.347159,-9.890448,-0.02638,-0.026113,0.022649
esp32-c3-002,10,55,146692,0.52433,0.351948,-9.871294,-0.02558,-0.026113,0.021317
esp32-c3-002,10,56,146712,0.538695,0.349553,-9.85214,-0.026646,-0.025314,0.020251
esp32-c3-002,10,57,146732,0.519542,0.349553,-9.876082,-0.027712,-0.02558,0.020784
esp32-c3-002,10,58,146752,0.538695,0.342371,-9.866506,-0.02638,-0.02558,0.019985
esp32-c3-002,10,59,146772,0.550666,0.373495,-9.856929,-0.02638,-0.027179,0.019718
esp32-c3-002,10,60,146792,0.550666,0.361524,-9.861717,-0.02638,-0.027179,0.019185
esp32-c3-002,10,61,146812,0.536301,0.373495,-9.878476,-0.027179,-0.026913,0.020784
esp32-c3-002,10,62,146832,0.574608,0.392649,-9.856929,-0.027446,-0.02638,0.021583
esp32-c3-002,10,63,146852,0.574608,0.399832,-9.864111,-0.026113,-0.02638,0.022383
esp32-c3-002,10,64,146873,0.538695,0.392649,-9.868899,-0.025847,-0.025847,0.022916
esp32-c3-002,10,65,146892,0.490811,0.342371,-9.890448,-0.027179,-0.02558,0.023449
esp32-c3-002,10,66,146912,0.490811,0.3304,-9.847352,-0.026913,-0.023449,0.023715
esp32-c3-002,10,67,146932,0.52433,0.356736,-9.873688,-0.025847,-0.02558,0.021051
esp32-c3-002,10,68,146952,0.514753,0.35913,-9.864111,-0.025847,-0.025847,0.019452
esp32-c3-002,10,69,146972,0.536301,0.373495,-9.837775,-0.026113,-0.025314,0.019452
esp32-c3-002,10,70,146992,0.550666,0.371101,-9.828198,-0.025847,-0.02558,0.021317
esp32-c3-002,10,71,147012,0.593762,0.397437,-9.832987,-0.02638,-0.026646,0.021583
esp32-c3-002,10,72,147032,0.550666,0.354342,-9.854534,-0.026113,-0.02638,0.021583
esp32-c3-002,10,73,147052,0.4956,0.371101,-9.861717,-0.026113,-0.026113,0.022116
esp32-c3-002,10,74,147072,0.543484,0.361524,-9.856929,-0.026646,-0.02638,0.022383
esp32-c3-002,10,75,147092,0.555455,0.363919,-9.85214,-0.026913,-0.026646,0.021583
esp32-c3-002,10,76,147112,0.52433,0.363919,-9.876082,-0.025847,-0.02638,0.019718
esp32-c3-002,10,77,147132,0.502782,0.35913,-9.864111,-0.026113,-0.026113,0.020784
esp32-c3-002,10,78,147152,0.553061,0.361524,-9.868899,-0.026646,-0.026113,0.021583
esp32-c3-002,10,79,147172,0.579397,0.383072,-9.849746,-0.026913,-0.025314,0.022916
esp32-c3-002,10,80,147193,0.514753,0.354342,-9.864111,-0.027179,-0.02638,0.022116
esp32-c3-002,10,81,147212,0.531513,0.335188,-9.866506,-0.02638,-0.026913,0.02185
esp32-c3-002,10,82,147232,0.555455,0.354342,-9.885659,-0.02638,-0.02558,0.022116
esp32-c3-002,10,83,147252,0.54109,0.366313,-9.832987,-0.026113,-0.025847,0.022383
esp32-c3-002,10,84,147272,0.519542,0.349553,-9.828198,-0.026646,-0.02558,0.021583
esp32-c3-002,10,85,147292,0.493206,0.349553,-9.861717,-0.026646,-0.025847,0.021051
esp32-c3-002,10,86,147312,0.509965,0.368707,-9.825804,-0.02638,-0.02558,0.020251
esp32-c3-002,10,87,147332,0.557849,0.378284,-9.85214,-0.026646,-0.025047,0.020251
esp32-c3-002,10,88,147352,0.555455,0.371101,-9.854534,-0.026646,-0.025847,0.021317
esp32-c3-002,10,89,147372,0.538695,0.385466,-9.868899,-0.026646,-0.02558,0.02185
esp32-c3-002,10,90,147392,0.543484,0.354342,-9.864111,-0.02638,-0.02558,0.02185
esp32-c3-002,10,91,147412,0.517148,0.344765,-9.859323,-0.026646,-0.025314,0.02185
esp32-c3-002,10,92,147432,0.531513,0.351948,-9.868899,-0.026646,-0.026113,0.021583
esp32-c3-002,10,93,147452,0.543484,0.371101,-9.866506,-0.027179,-0.026113,0.021051
esp32-c3-002,10,94,147472,0.533907,0.363919,-9.840169,-0.026646,-0.02638,0.021317
esp32-c3-002,10,95,147492,0.54109,0.356736,-9.873688,-0.026913,-0.02638,0.020784
esp32-c3-002,10,96,147512,0.555455,0.363919,-9.871294,-0.026113,-0.026113,0.020784
esp32-c3-002,10,97,147532,0.517148,0.354342,-9.840169,-0.026113,-0.02558,0.021317
esp32-c3-002,10,98,147552,0.533907,0.356736,-9.861717,-0.027179,-0.026646,0.021583
esp32-c3-002,10,99,147572,0.54109,0.361524,-9.856929,-0.026646,-0.026113,0.02185
esp32-c3-002,11,0,147657,0.536301,0.356736,-9.854534,-0.025847,-0.026113,0.019985
esp32-c3-002,11,1,147676,0.567426,0.387861,-9.878476,-0.026113,-0.026113,0.019718
esp32-c3-002,11,2,147696,0.565032,0.392649,-9.871294,-0.02558,-0.026113,0.021317
esp32-c3-002,11,3,147716,0.548272,0.366313,-9.873688,-0.026913,-0.02638,0.022649
esp32-c3-002,11,4,147736,0.54109,0.37589,-9.873688,-0.026913,-0.026113,0.023182
esp32-c3-002,11,5,147756,0.54109,0.363919,-9.830592,-0.026113,-0.025847,0.022649
esp32-c3-002,11,6,147776,0.519542,0.354342,-9.859323,-0.02558,-0.027179,0.021317
esp32-c3-002,11,7,147796,0.526724,0.351948,-9.809045,-0.026113,-0.025847,0.020784
esp32-c3-002,11,8,147816,0.543484,0.373495,-9.847352,-0.026646,-0.026113,0.020784
esp32-c3-002,11,9,147836,0.54109,0.366313,-9.847352,-0.026646,-0.025847,0.020518
esp32-c3-002,11,10,147856,0.526724,0.351948,-9.861717,-0.026646,-0.02558,0.020784
esp32-c3-002,11,11,147876,0.548272,0.361524,-9.866506,-0.027179,-0.02558,0.022116
esp32-c3-002,11,12,147897,0.526724,0.37589,-9.844957,-0.025847,-0.025847,0.022116
esp32-c3-002,11,13,147916,0.529119,0.344765,-9.856929,-0.026646,-0.02558,0.022383
esp32-c3-002,11,14,147936,0.529119,0.351948,-9.85214,-0.026646,-0.026113,0.021051
esp32-c3-002,11,15,147956,0.54109,0.361524,-9.868899,-0.026646,-0.026913,0.02185
esp32-c3-002,11,16,147976,0.521936,0.366313,-9.864111,-0.025847,-0.02638,0.02185
esp32-c3-002,11,17,147996,0.526724,0.378284,-9.835381,-0.026913,-0.025847,0.021051
esp32-c3-002,11,18,148016,0.521936,0.368707,-9.873688,-0.02638,-0.026646,0.021583
esp32-c3-002,11,19,148036,0.538695,0.368707,-9.847352,-0.026113,-0.026113,0.021317
esp32-c3-002,11,20,148056,0.54109,0.373495,-9.859323,-0.02558,-0.026113,0.021583
esp32-c3-002,11,21,148076,0.574608,0.37589,-9.821015,-0.02638,-0.025847,0.021317
esp32-c3-002,11,22,148096,0.531513,0.363919,-9.873688,-0.025847,-0.025047,0.02185
esp32-c3-002,11,23,148116,0.54109,0.349553,-9.868899,-0.02638,-0.026113,0.022649
esp32-c3-002,11,24,148136,0.543484,0.373495,-9.856929,-0.025847,-0.025847,0.022649
esp32-c3-002,11,25,148156,0.531513,0.366313,-9.859323,-0.026913,-0.026646,0.021583
esp32-c3-002,11,26,148176,0.538695,0.368707,-9.880871,-0.026913,-0.02638,0.022116
esp32-c3-002,11,27,148196,0.536301,0.351948,-9.856929,-0.026646,-0.026113,0.021583
esp32-c3-002,11,28,148216,0.543484,0.354342,-9.849746,-0.027446,-0.026113,0.021051
esp32-c3-002,11,29,148236,0.550666,0.354342,-9.873688,-0.025847,-0.026113,0.021583
esp32-c3-002,11,30,148256,0.536301,0.344765,-9.85214,-0.02638,-0.026113,0.022116
esp32-c3-002,11,31,148276,0.52433,0.368707,-9.861717,-0.026913,-0.026113,0.022116
esp32-c3-002,11,32,148296,0.529119,0.351948,-9.902418,-0.02638,-0.02638,0.022116
esp32-c3-002,11,33,148317,0.536301,0.35913,-9.883265,-0.027446,-0.02638,0.020518
esp32-c3-002,11,34,148336,0.519542,0.366313,-9.832987,-0.02638,-0.02638,0.021583
esp32-c3-002,11,35,148356,0.531513,0.373495,-9.878476,-0.02638,-0.026646,0.021317
esp32-c3-002,11,36,148376,0.548272,0.361524,-9.876082,-0.026913,-0.026113,0.021051
esp32-c3-002,11,37,148396,0.560243,0.371101,-9.873688,-0.027446,-0.02558,0.02185
esp32-c3-002,11,38,148416,0.548272,0.371101,-9.866506,-0.026913,-0.02558,0.022383
esp32-c3-002,11,39,148436,0.536301,0.356736,-9.828198,-0.026913,-0.02638,0.022116
esp32-c3-002,11,40,148456,0.536301,0.363919,-9.888053,-0.02558,-0.025847,0.020251
esp32-c3-002,11,41,148476,0.529119,0.371101,-9.866506,-0.026913,-0.026113,0.02185
esp32-c3-002,11,42,148496,0.562637,0.37589,-9.876082,-0.027179,-0.02638,0.021051
esp32-c3-002,11,43,148517,0.543484,0.361524,-9.878476,-0.02558,-0.02558,0.02185
esp32-c3-002,11,44,148536,0.52433,0.378284,-9.866506,-0.026913,-0.026646,0.022116
esp32-c3-002,11,45,148556,0.517148,0.344765,-9.878476,-0.02638,-0.025847,0.022116
esp32-c3-002,11,46,148576,0.533907,0.371101,-9.873688,-0.026646,-0.025314,0.02185
esp32-c3-002,11,47,148596,0.529119,0.351948,-9.871294,-0.026913,-0.02638,0.021051
esp32-c3-002,11,48,148616,0.533907,0.3304,-9.844957,-0.026646,-0.025847,0.021051
esp32-c3-002,11,49,148636,0.533907,0.35913,-9.854534,-0.02638,-0.026113,0.021051
esp32-c3-002,11,50,148656,0.581791,0.387861,-9.861717,-0.025847,-0.02638,0.021317
esp32-c3-002,11,51,148676,0.538695,0.378284,-9.878476,-0.02638,-0.02638,0.022383
esp32-c3-002,11,52,148696,0.536301,0.371101,-9.859323,-0.027179,-0.025314,0.02185
esp32-c3-002,11,53,148716,0.519542,0.368707,-9.868899,-0.027446,-0.025847,0.022916
esp32-c3-002,11,54,148736,0.519542,0.354342,-9.866506,-0.026646,-0.024515,0.02185
esp32-c3-002,11,55,148756,0.521936,0.351948,-9.888053,-0.026646,-0.02638,0.020784
esp32-c3-002,11,56,148776,0.536301,0.342371,-9.873688,-0.026913,-0.026913,0.020784
esp32-c3-002,11,57,148796,0.545878,0.373495,-9.871294,-0.026113,-0.02558,0.020251
esp32-c3-002,11,58,148816,0.54109,0.390255,-9.854534,-0.026646,-0.02558,0.021317
esp32-c3-002,11,59,148836,0.538695,0.366313,-9.859323,-0.026646,-0.02558,0.021583
esp32-c3-002,11,60,148856,0.54109,0.363919,-9.868899,-0.02638,-0.025847,0.022383
esp32-c3-002,11,61,148876,0.536301,0.383072,-9.871294,-0.02638,-0.02638,0.022116
esp32-c3-002,11,62,148896,0.545878,0.368707,-9.861717,-0.026913,-0.02558,0.02185
esp32-c3-002,11,63,148916,0.529119,0.347159,-9.876082,-0.027179,-0.025314,0.022383
esp32-c3-002,11,64,148936,0.521936,0.35913,-9.856929,-0.027179,-0.027179,0.022116
esp32-c3-002,11,65,148956,0.538695,0.361524,-9.832987,-0.025847,-0.026113,0.020784
esp32-c3-002,11,66,148976,0.550666,0.373495,-9.873688,-0.02638,-0.026113,0.021317
esp32-c3-002,11,67,148996,0.545878,0.363919,-9.861717,-0.02638,-0.02558,0.022116
esp32-c3-002,11,68,149016,0.533907,0.354342,-9.866506,-0.026646,-0.02638,0.022116
esp32-c3-002,11,69,149036,0.553061,0.368707,-9.885659,-0.02638,-0.026113,0.022649
esp32-c3-002,11,70,149056,0.560243,0.378284,-9.835381,-0.026913,-0.025847,0.022116
esp32-c3-002,11,71,149076,0.531513,0.378284,-9.890448,-0.026913,-0.025847,0.02185
esp32-c3-002,11,72,149096,0.505177,0.351948,-9.868899,-0.026646,-0.025047,0.022649
esp32-c3-002,11,73,149116,0.550666,0.371101,-9.864111,-0.026913,-0.02558,0.021583
esp32-c3-002,11,74,149136,0.526724,0.344765,-9.844957,-0.027179,-0.026913,0.019985
esp32-c3-002,11,75,149156,0.538695,0.354342,-9.856929,-0.026913,-0.026113,0.019718
esp32-c3-002,11,76,149176,0.538695,0.361524,-9.883265,-0.02638,-0.026913,0.021583
esp32-c3-002,11,77,149196,0.555455,0.383072,-9.880871,-0.02638,-0.025847,0.021051
esp32-c3-002,11,78,149216,0.550666,0.380678,-9.85214,-0.026646,-0.025847,0.022116
esp32-c3-002,11,79,149236,0.538695,0.371101,-9.854534,-0.026913,-0.02558,0.022383
esp32-c3-002,11,80,149256,0.536301,0.378284,-9.861717,-0.02638,-0.025847,0.023182
esp32-c3-002,11,81,149276,0.550666,0.354342,-9.840169,-0.02638,-0.02558,0.023449
esp32-c3-002,11,82,149296,0.517148,0.361524,-9.825804,-0.026113,-0.02558,0.022116
esp32-c3-002,11,83,149316,0.486023,0.339977,-9.864111,-0.026913,-0.025314,0.022116
esp32-c3-002,11,84,149336,0.505177,0.356736,-9.856929,-0.02638,-0.02638,0.019452
esp32-c3-002,11,85,149356,0.572214,0.373495,-9.866506,-0.025847,-0.026113,0.019985
esp32-c3-002,11,86,149376,0.579397,0.385466,-9.871294,-0.026646,-0.026113,0.019718
esp32-c3-002,11,87,149396,0.553061,0.37589,-9.847352,-0.02638,-0.026646,0.021051
esp32-c3-002,11,88,149416,0.560243,0.380678,-9.866506,-0.026913,-0.026646,0.022116
esp32-c3-002,11,89,149436,0.553061,0.397437,-9.856929,-0.026646,-0.026646,0.023182
esp32-c3-002,11,90,149457,0.52433,0.373495,-9.876082,-0.02638,-0.025314,0.022916
esp32-c3-002,11,91,149476,0.500388,0.356736,-9.854534,-0.02638,-0.025847,0.022116
esp32-c3-002,11,92,149496,0.529119,0.35913,-9.904813,-0.025847,-0.026113,0.021583
esp32-c3-002,11,93,149516,0.526724,0.354342,-9.866506,-0.02638,-0.026113,0.020518
esp32-c3-002,11,94,149536,0.548272,0.371101,-9.885659,-0.026913,-0.025847,0.020784
esp32-c3-002,11,95,149556,0.531513,0.373495,-9.873688,-0.026113,-0.02558,0.021317
esp32-c3-002,11,96,149576,0.54109,0.366313,-9.868899,-0.02638,-0.026113,0.021583
esp32-c3-002,11,97,149596,0.555455,0.356736,-9.854534,-0.026646,-0.026646,0.02185
esp32-c3-002,11,98,149616,0.529119,0.378284,-9.890448,-0.026646,-0.02638,0.021583
esp32-c3-002,11,99,149636,0.536301,0.351948,-9.825804,-0.026646,-0.02638,0.021583
esp32-c3-002,12,0,149733,0.545878,0.373495,-9.861717,-0.026646,-0.02638,0.020251
esp32-c3-002,12,1,149752,0.514753,0.349553,-9.85214,-0.027446,-0.02558,0.020784
esp32-c3-002,12,2,149773,0.548272,0.37589,-9.864111,-0.026646,-0.02558,0.021583
esp32-c3-002,12,3,149792,0.548272,0.371101,-9.844957,-0.026113,-0.026113,0.021317
esp32-c3-002,12,4,149812,0.529119,0.361524,-9.880871,-0.025847,-0.026646,0.021317
esp32-c3-002,12,5,149832,0.545878,0.366313,-9.854534,-0.02638,-0.02558,0.021051
esp32-c3-002,12,6,149852,0.54109,0.363919,-9.837775,-0.02638,-0.026113,0.021317
esp32-c3-002,12,7,149872,0.557849,0.349553,-9.89763,-0.02638,-0.027446,0.021051
esp32-c3-002,12,8,149892,0.533907,0.356736,-9.866506,-0.026113,-0.026113,0.02185
esp32-c3-002,12,9,149912,0.538695,0.356736,-9.859323,-0.02638,-0.02638,0.021051
esp32-c3-002,12,10,149932,0.565032,0.380678,-9.854534,-0.026646,-0.02638,0.021317
esp32-c3-002,12,11,149952,0.555455,0.35913,-9.854534,-0.026646,-0.025847,0.022116
esp32-c3-002,12,12,149972,0.531513,0.361524,-9.904813,-0.027179,-0.02558,0.022116
esp32-c3-002,12,13,149992,0.514753,0.342371,-9.85214,-0.026646,-0.025314,0.02185
esp32-c3-002,12,14,150012,0.584185,0.361524,-9.844957,-0.026646,-0.02558,0.02185
esp32-c3-002,12,15,150032,0.565032,0.390255,-9.849746,-0.02638,-0.026646,0.021051
esp32-c3-002,12,16,150053,0.536301,0.349553,-9.871294,-0.02638,-0.026113,0.021583
esp32-c3-002,12,17,150072,0.519542,0.351948,-9.840169,-0.026646,-0.025314,0.021583
esp32-c3-002,12,18,150092,0.545878,0.361524,-9.883265,-0.026646,-0.025847,0.021051
esp32-c3-002,12,19,150112,0.550666,0.35913,-9.864111,-0.026646,-0.026113,0.020784
esp32-c3-002,12,20,150132,0.529119,0.349553,-9.883265,-0.027179,-0.025847,0.020251
esp32-c3-002,12,21,150152,0.52433,0.368707,-9.868899,-0.02638,-0.026113,0.021317
esp32-c3-002,12,22,150172,0.557849,0.387861,-9.859323,-0.026646,-0.026113,0.021051
esp32-c3-002,12,23,150192,0.529119,0.383072,-9.816227,-0.026646,-0.026113,0.021051
esp32-c3-002,12,24,150212,0.526724,0.349553,-9.849746,-0.027179,-0.025847,0.022649
esp32-c3-002,12,25,150232,0.52433,0.368707,-9.888053,-0.026913,-0.025314,0.022116
esp32-c3-002,12,26,150252,0.548272,0.351948,-9.866506,-0.027179,-0.025847,0.02185
esp32-c3-002,12,27,150272,0.526724,0.373495,-9.844957,-0.026646,-0.02638,0.021583
esp32-c3-002,12,28,150292,0.54109,0.356736,-9.842564,-0.026646,-0.025314,0.021583
esp32-c3-002,12,29,150312,0.548272,0.368707,-9.895236,-0.026646,-0.02638,0.022116
esp32-c3-002,12,30,150332,0.543484,0.356736,-9.849746,-0.02638,-0.026113,0.020784
esp32-c3-002,12,31,150352,0.548272,0.347159,-9.861717,-0.027179,-0.02638,0.022116
esp32-c3-002,12,32,150372,0.536301,0.363919,-9.866506,-0.02638,-0.025847,0.021051
esp32-c3-002,12,33,150392,0.557849,0.354342,-9.864111,-0.026646,-0.02558,0.02185
esp32-c3-002,12,34,150412,0.557849,0.363919,-9.868899,-0.026113,-0.025847,0.021583
esp32-c3-002,12,35,150432,0.545878,0.373495,-9.840169,-0.02638,-0.025314,0.022383
esp32-c3-002,12,36,150452,0.517148,0.361524,-9.892841,-0.026113,-0.02558,0.02185
esp32-c3-002,12,37,150472,0.521936,0.347159,-9.85214,-0.026113,-0.026646,0.022116
esp32-c3-002,12,38,150492,0.548272,0.361524,-9.871294,-0.026113,-0.026646,0.021051
esp32-c3-002,12,39,150512,0.52433,0.35913,-9.885659,-0.02638,-0.02558,0.021583
esp32-c3-002,12,40,150532,0.507571,0.361524,-9.830592,-0.027179,-0.025314,0.02185
esp32-c3-002,12,41,150552,0.533907,0.371101,-9.856929,-0.02638,-0.02558,0.021051
esp32-c3-002,12,42,150573,0.562637,0.392649,-9.854534,-0.026113,-0.026913,0.020784
esp32-c3-002,12,43,150592,0.548272,0.354342,-9.878476,-0.026113,-0.025847,0.021583
esp32-c3-002,12,44,150612,0.519542,0.35913,-9.864111,-0.026913,-0.025314,0.022116
esp32-c3-002,12,45,150632,0.543484,0.378284,-9.878476,-0.02638,-0.025314,0.02185
esp32-c3-002,12,46,150652,0.536301,0.349553,-9.864111,-0.026113,-0.026913,0.021317
esp32-c3-002,12,47,150672,0.519542,0.351948,-9.859323,-0.02638,-0.02558,0.020784
esp32-c3-002,12,48,150692,0.52433,0.368707,-9.859323,-0.026913,-0.02558,0.020784
esp32-c3-002,12,49,150712,0.565032,0.380678,-9.883265,-0.026913,-0.02638,0.020251
esp32-c3-002,12,50,150732,0.562637,0.37589,-9.849746,-0.025847,-0.025847,0.021317
esp32-c3-002,12,51,150752,0.519542,0.380678,-9.876082,-0.025314,-0.026113,0.022383
esp32-c3-002,12,52,150772,0.536301,0.356736,-9.859323,-0.026113,-0.025314,0.021317
esp32-c3-002,12,53,150792,0.553061,0.361524,-9.868899,-0.026113,-0.027446,0.022383
esp32-c3-002,12,54,150812,0.526724,0.366313,-9.878476,-0.026113,-0.02558,0.02185
esp32-c3-002,12,55,150832,0.519542,0.344765,-9.890448,-0.02558,-0.026113,0.02185
esp32-c3-002,12,56,150852,0.533907,0.363919,-9.854534,-0.026913,-0.02558,0.02185
esp32-c3-002,12,57,150872,0.543484,0.356736,-9.849746,-0.027179,-0.025047,0.020518
esp32-c3-002,12,58,150892,0.543484,0.37589,-9.844957,-0.026646,-0.02558,0.021051
esp32-c3-002,12,59,150912,0.517148,0.349553,-9.859323,-0.026913,-0.02638,0.020784
esp32-c3-002,12,60,150932,0.514753,0.354342,-9.873688,-0.027179,-0.025314,0.020251
esp32-c3-002,12,61,150952,0.514753,0.35913,-9.888053,-0.027446,-0.025047,0.020251
esp32-c3-002,12,62,150972,0.521936,0.363919,-9.873688,-0.028245,-0.022383,0.018919
esp32-c3-002,12,63,150992,0.567426,0.35913,-9.873688,-0.028511,-0.021317,0.019185
esp32-c3-002,12,64,151012,0.577003,0.380678,-9.835381,-0.028511,-0.022649,0.020784
esp32-c3-002,12,65,151032,0.600945,0.387861,-9.85214,-0.028778,-0.023982,0.021051
esp32-c3-002,12,66,151052,0.550666,0.387861,-9.878476,-0.027446,-0.024781,0.022916
esp32-c3-002,12,67,151072,0.545878,0.344765,-9.842564,-0.027979,-0.024248,0.023182
esp32-c3-002,12,68,151092,0.509965,0.351948,-9.854534,-0.027446,-0.023982,0.02185
esp32-c3-002,12,69,151112,0.507571,0.351948,-9.868899,-0.028245,-0.022383,0.021317
esp32-c3-002,12,70,151132,0.517148,0.342371,-9.876082,-0.027712,-0.024515,0.021317
esp32-c3-002,12,71,151152,0.531513,0.368707,-9.847352,-0.026646,-0.025847,0.019985
esp32-c3-002,12,72,151172,0.557849,0.368707,-9.847352,-0.02638,-0.02558,0.021317
esp32-c3-002,12,73,151192,0.579397,0.395043,-9.890448,-0.02638,-0.026913,0.022383
esp32-c3-002,12,74,151212,0.545878,0.380678,-9.878476,-0.025847,-0.025847,0.022649
esp32-c3-002,12,75,151232,0.512359,0.349553,-9.873688,-0.026646,-0.026913,0.022649
esp32-c3-002,12,76,151252,0.514753,0.349553,-9.859323,-0.026646,-0.025847,0.021317
esp32-c3-002,12,77,151272,0.545878,0.371101,-9.868899,-0.025847,-0.025847,0.021583
esp32-c3-002,12,78,151292,0.536301,0.349553,-9.837775,-0.025847,-0.026113,0.021317
esp32-c3-002,12,79,151312,0.545878,0.371101,-9.825804,-0.026113,-0.027979,0.021317
esp32-c3-002,12,80,151332,0.553061,0.380678,-9.878476,-0.025847,-0.026646,0.022116
esp32-c3-002,12,81,151352,0.536301,0.363919,-9.866506,-0.025847,-0.026913,0.022383
esp32-c3-002,12,82,151372,0.545878,0.368707,-9.876082,-0.026113,-0.026646,0.02185
esp32-c3-002,12,83,151392,0.543484,0.356736,-9.840169,-0.02638,-0.02638,0.023182
esp32-c3-002,12,84,151412,0.538695,0.368707,-9.859323,-0.026913,-0.02558,0.022916
esp32-c3-002,12,85,151432,0.533907,0.339977,-9.861717,-0.02638,-0.02558,0.022116
esp32-c3-002,12,86,151452,0.514753,0.347159,-9.85214,-0.026113,-0.025847,0.021317
esp32-c3-002,12,87,151472,0.507571,0.368707,-9.818622,-0.026113,-0.026646,0.020784
esp32-c3-002,12,88,151492,0.548272,0.37589,-9.885659,-0.025847,-0.026646,0.020518
esp32-c3-002,12,89,151512,0.572214,0.373495,-9.864111,-0.025847,-0.026913,0.021317
esp32-c3-002,12,90,151532,0.536301,0.361524,-9.868899,-0.025847,-0.028511,0.022383
esp32-c3-002,12,91,151552,0.548272,0.35913,-9.864111,-0.02638,-0.027179,0.023182
esp32-c3-002,12,92,151572,0.565032,0.366313,-9.844957,-0.026913,-0.026113,0.024515
esp32-c3-002,12,93,151592,0.567426,0.356736,-9.847352,-0.025847,-0.02638,0.024248
esp32-c3-002,12,94,151612,0.533907,0.366313,-9.888053,-0.026113,-0.027446,0.023449
esp32-c3-002,12,95,151632,0.497994,0.344765,-9.871294,-0.026113,-0.026913,0.023449
esp32-c3-002,12,96,151652,0.519542,0.361524,-9.856929,-0.02558,-0.027179,0.023182
esp32-c3-002,12,97,151672,0.521936,0.344765,-9.900024,-0.02558,-0.026913,0.020784
esp32-c3-002,12,98,151693,0.493206,0.351948,-9.859323,-0.025314,-0.027712,0.020518
esp32-c3-002,12,99,151712,0.514753,0.35913,-9.830592,-0.02558,-0.027179,0.019985
esp32-c3-002,13,0,151798,0.538695,0.368707,-9.868899,-0.027179,-0.025847,0.023715
esp32-c3-002,13,1,151817,0.505177,0.342371,-9.883265,-0.02638,-0.02558,0.023182
esp32-c3-002,13,2,151838,0.493206,0.335188,-9.849746,-0.026646,-0.025847,0.021317
esp32-c3-002,13,3,151857,0.505177,0.342371,-9.876082,-0.02638,-0.027179,0.019452
esp32-c3-002,13,4,151877,0.54109,0.361524,-9.861717,-0.02558,-0.025847,0.019185
esp32-c3-002,13,5,151898,0.565032,0.385466,-9.868899,-0.025847,-0.027179,0.019452
esp32-c3-002,13,6,151917,0.584185,0.378284,-9.85214,-0.02638,-0.02638,0.020518
esp32-c3-002,13,7,151937,0.567426,0.399832,-9.871294,-0.027179,-0.026113,0.022116
esp32-c3-002,13,8,151957,0.56982,0.380678,-9.890448,-0.026646,-0.026113,0.024781
esp32-c3-002,13,9,151977,0.531513,0.373495,-9.878476,-0.026646,-0.02558,0.024515
esp32-c3-002,13,10,151997,0.47884,0.335188,-9.840169,-0.026646,-0.02558,0.023715
esp32-c3-002,13,11,152017,0.45011,0.332794,-9.849746,-0.027179,-0.025847,0.021051
esp32-c3-002,13,12,152037,0.493206,0.3304,-9.868899,-0.02638,-0.026646,0.019185
esp32-c3-002,13,13,152057,0.533907,0.351948,-9.861717,-0.026113,-0.027179,0.018119
esp32-c3-002,13,14,152077,0.591368,0.383072,-9.849746,-0.02638,-0.025314,0.019185
esp32-c3-002,13,15,152097,0.59855,0.395043,-9.866506,-0.026113,-0.026113,0.020784
esp32-c3-002,13,16,152117,0.610521,0.383072,-9.876082,-0.026913,-0.02638,0.022383
esp32-c3-002,13,17,152137,0.560243,0.390255,-9.878476,-0.026113,-0.02558,0.024515
esp32-c3-002,13,18,152157,0.531513,0.371101,-9.866506,-0.026913,-0.024515,0.024781
esp32-c3-002,13,19,152177,0.469264,0.320823,-9.868899,-0.02558,-0.025047,0.025047
esp32-c3-002,13,20,152198,0.490811,0.3304,-9.864111,-0.02638,-0.025314,0.022116
esp32-c3-002,13,21,152217,0.500388,0.335188,-9.878476,-0.026913,-0.026113,0.019985
esp32-c3-002,13,22,152237,0.519542,0.368707,-9.859323,-0.02638,-0.026646,0.018919
esp32-c3-002,13,23,152257,0.557849,0.361524,-9.864111,-0.025847,-0.026113,0.019452
esp32-c3-002,13,24,152277,0.562637,0.392649,-9.854534,-0.026646,-0.02558,0.021051
esp32-c3-002,13,25,152297,0.56982,0.383072,-9.868899,-0.026113,-0.025847,0.021583
esp32-c3-002,13,26,152317,0.560243,0.351948,-9.883265,-0.02638,-0.026646,0.022916
esp32-c3-002,13,27,152337,0.531513,0.361524,-9.883265,-0.02638,-0.02638,0.022383
esp32-c3-002,13,28,152357,0.533907,0.325611,-9.856929,-0.02638,-0.025847,0.022383
esp32-c3-002,13,29,152377,0.514753,0.335188,-9.873688,-0.02558,-0.027179,0.022649
esp32-c3-002,13,30,152397,0.509965,0.356736,-9.888053,-0.025314,-0.026913,0.020251
esp32-c3-002,13,31,152417,0.543484,0.349553,-9.861717,-0.025847,-0.026113,0.019718
esp32-c3-002,13,32,152437,0.555455,0.373495,-9.871294,-0.026113,-0.026913,0.020784
esp32-c3-002,13,33,152457,0.565032,0.368707,-9.895236,-0.02638,-0.026913,0.021051
esp32-c3-002,13,34,152477,0.550666,0.378284,-9.849746,-0.026113,-0.02558,0.022116
esp32-c3-002,13,35,152497,0.538695,0.35913,-9.856929,-0.026113,-0.025314,0.023449
esp32-c3-002,13,36,152517,0.517148,0.349553,-9.864111,-0.026646,-0.025314,0.022916
esp32-c3-002,13,37,152537,0.507571,0.356736,-9.890448,-0.02638,-0.02558,0.022383
esp32-c3-002,13,38,152557,0.514753,0.318429,-9.880871,-0.02638,-0.02558,0.021583
esp32-c3-002,13,39,152577,0.505177,0.349553,-9.859323,-0.026913,-0.02558,0.021051
esp32-c3-002,13,40,152597,0.529119,0.35913,-9.864111,-0.026913,-0.02558,0.019985
esp32-c3-002,13,41,152617,0.553061,0.363919,-9.844957,-0.026913,-0.026646,0.019985
esp32-c3-002,13,42,152637,0.574608,0.373495,-9.854534,-0.026113,-0.02638,0.021583
esp32-c3-002,13,43,152657,0.562637,0.368707,-9.85214,-0.026113,-0.026913,0.022116
esp32-c3-002,13,44,152677,0.550666,0.363919,-9.835381,-0.025847,-0.027446,0.022649
esp32-c3-002,13,45,152697,0.533907,0.35913,-9.859323,-0.026646,-0.02638,0.022383
esp32-c3-002,13,46,152717,0.529119,0.361524,-9.868899,-0.026646,-0.026646,0.022916
esp32-c3-002,13,47,152737,0.514753,0.332794,-9.878476,-0.026913,-0.026113,0.023449
esp32-c3-002,13,48,152757,0.509965,0.342371,-9.866506,-0.026913,-0.02558,0.02185
esp32-c3-002,13,49,152777,0.517148,0.325611,-9.883265,-0.02638,-0.02558,0.020518
esp32-c3-002,13,50,152797,0.526724,0.344765,-9.849746,-0.02638,-0.025847,0.020518
esp32-c3-002,13,51,152818,0.543484,0.383072,-9.809045,-0.025847,-0.026913,0.020518
esp32-c3-002,13,52,152837,0.572214,0.380678,-9.849746,-0.025847,-0.02638,0.021051
esp32-c3-002,13,53,152857,0.543484,0.37589,-9.842564,-0.026646,-0.025047,0.02185
esp32-c3-002,13,54,152877,0.531513,0.349553,-9.866506,-0.026646,-0.024781,0.021583
esp32-c3-002,13,55,152897,0.507571,0.351948,-9.849746,-0.026913,-0.025314,0.022383
esp32-c3-002,13,56,152917,0.509965,0.349553,-9.900024,-0.026646,-0.025847,0.021051
esp32-c3-002,13,57,152937,0.52433,0.371101,-9.854534,-0.026113,-0.026646,0.021317
esp32-c3-002,13,58,152957,0.529119,0.373495,-9.847352,-0.025847,-0.027179,0.021051
esp32-c3-002,13,59,152977,0.572214,0.380678,-9.828198,-0.026113,-0.025847,0.021583
esp32-c3-002,13,60,152997,0.543484,0.373495,-9.847352,-0.026113,-0.027179,0.022116
esp32-c3-002,13,61,153017,0.507571,0.368707,-9.861717,-0.02638,-0.026646,0.022649
esp32-c3-002,13,62,153037,0.529119,0.354342,-9.847352,-0.02638,-0.02638,0.022649
esp32-c3-002,13,63,153057,0.538695,0.349553,-9.847352,-0.026913,-0.024515,0.022383
esp32-c3-002,13,64,153077,0.509965,0.349553,-9.85214,-0.026646,-0.02638,0.02185
esp32-c3-002,13,65,153097,0.54109,0.347159,-9.861717,-0.026913,-0.026913,0.020784
esp32-c3-002,13,66,153117,0.557849,0.35913,-9.85214,-0.025847,-0.026913,0.02185
esp32-c3-002,13,67,153137,0.567426,0.378284,-9.868899,-0.026646,-0.026646,0.02185
esp32-c3-002,13,68,153157,0.557849,0.373495,-9.868899,-0.02638,-0.02558,0.022649
esp32-c3-002,13,69,153177,0.531513,0.383072,-9.854534,-0.026913,-0.02638,0.022649
esp32-c3-002,13,70,153197,0.514753,0.361524,-9.840169,-0.02638,-0.025847,0.022383
esp32-c3-002,13,71,153217,0.52433,0.349553,-9.864111,-0.026646,-0.024781,0.021583
esp32-c3-002,13,72,153237,0.521936,0.37589,-9.876082,-0.026113,-0.02638,0.021317
esp32-c3-002,13,73,153257,0.536301,0.356736,-9.883265,-0.026113,-0.02638,0.021051
esp32-c3-002,13,74,153277,0.54109,0.366313,-9.844957,-0.025314,-0.027712,0.020784
esp32-c3-002,13,75,153297,0.550666,0.366313,-9.849746,-0.025847,-0.027179,0.021051
esp32-c3-002,13,76,153317,0.543484,0.378284,-9.864111,-0.026646,-0.025314,0.021583
esp32-c3-002,13,77,153337,0.54109,0.371101,-9.849746,-0.026913,-0.025847,0.022649
esp32-c3-002,13,78,153357,0.562637,0.368707,-9.871294,-0.02558,-0.02558,0.022116
esp32-c3-002,13,79,153377,0.538695,0.383072,-9.885659,-0.025847,-0.027979,0.021051
esp32-c3-002,13,80,153397,0.545878,0.37589,-9.854534,-0.026113,-0.027179,0.022916
esp32-c3-002,13,81,153417,0.52433,0.342371,-9.883265,-0.026913,-0.026113,0.022649
esp32-c3-002,13,82,153437,0.493206,0.323217,-9.854534,-0.027979,-0.025314,0.022649
esp32-c3-002,13,83,153457,0.490811,0.351948,-9.890448,-0.027179,-0.025314,0.020784
esp32-c3-002,13,84,153477,0.529119,0.363919,-9.844957,-0.026646,-0.026913,0.020251
esp32-c3-002,13,85,153497,0.562637,0.37589,-9.85214,-0.026113,-0.027179,0.020251
esp32-c3-002,13,86,153517,0.567426,0.368707,-9.888053,-0.026913,-0.025847,0.021051
esp32-c3-002,13,87,153537,0.521936,0.371101,-9.835381,-0.027446,-0.024515,0.022383
esp32-c3-002,13,88,153557,0.555455,0.373495,-9.844957,-0.027446,-0.025314,0.023182
esp32-c3-002,13,89,153577,0.512359,0.351948,-9.859323,-0.027179,-0.025047,0.022916
esp32-c3-002,13,90,153597,0.4956,0.337582,-9.866506,-0.026646,-0.025314,0.021051
esp32-c3-002,13,91,153617,0.52433,0.342371,-9.873688,-0.025847,-0.026646,0.020251
esp32-c3-002,13,92,153637,0.545878,0.356736,-9.876082,-0.026113,-0.026113,0.019718
esp32-c3-002,13,93,153657,0.538695,0.373495,-9.849746,-0.026113,-0.026646,0.019985
esp32-c3-002,13,94,153677,0.550666,0.361524,-9.85214,-0.02638,-0.026913,0.021583
esp32-c3-002,13,95,153697,0.59855,0.399832,-9.859323,-0.026113,-0.026913,0.02185
esp32-c3-002,13,96,153717,0.584185,0.385466,-9.868899,-0.026913,-0.02558,0.023715
esp32-c3-002,13,97,153737,0.500388,0.323217,-9.868899,-0.027446,-0.024248,0.025047
esp32-c3-002,13,98,153757,0.481235,0.3304,-9.856929,-0.026646,-0.024781,0.023982
esp32-c3-002,13,99,153777,0.517148,0.337582,-9.876082,-0.026113,-0.024515,0.021317
esp32-c3-002,14,0,153881,0.553061,0.37589,-9.847352,-0.026646,-0.02558,0.021317
esp32-c3-002,14,1,153900,0.533907,0.373495,-9.861717,-0.027179,-0.026913,0.02185
esp32-c3-002,14,2,153920,0.54109,0.363919,-9.842564,-0.026646,-0.02638,0.022916
esp32-c3-002,14,3,153941,0.529119,0.361524,-9.840169,-0.026646,-0.025047,0.022383
esp32-c3-002,14,4,153961,0.52433,0.354342,-9.844957,-0.026913,-0.02558,0.02185
esp32-c3-002,14,5,153980,0.533907,0.354342,-9.883265,-0.027179,-0.026646,0.021583
esp32-c3-002,14,6,154000,0.553061,0.37589,-9.844957,-0.026113,-0.02638,0.02185
esp32-c3-002,14,7,154020,0.529119,0.344765,-9.847352,-0.026913,-0.02638,0.021317
esp32-c3-002,14,8,154041,0.509965,0.339977,-9.830592,-0.027179,-0.025047,0.021317
esp32-c3-002,14,9,154060,0.526724,0.349553,-9.864111,-0.027179,-0.025047,0.021051
esp32-c3-002,14,10,154080,0.56982,0.371101,-9.844957,-0.026913,-0.026113,0.021317
esp32-c3-002,14,11,154100,0.548272,0.378284,-9.844957,-0.026913,-0.025314,0.020784
esp32-c3-002,14,12,154120,0.531513,0.366313,-9.866506,-0.02638,-0.025047,0.021317
esp32-c3-002,14,13,154140,0.543484,0.35913,-9.856929,-0.02638,-0.02558,0.022116
esp32-c3-002,14,14,154160,0.565032,0.356736,-9.85214,-0.02558,-0.02558,0.021583
esp32-c3-002,14,15,154180,0.531513,0.368707,-9.847352,-0.02558,-0.025847,0.021317
esp32-c3-002,14,16,154200,0.533907,0.37589,-9.856929,-0.026646,-0.025847,0.022649
esp32-c3-002,14,17,154220,0.526724,0.35913,-9.859323,-0.025847,-0.026113,0.022383
esp32-c3-002,14,18,154240,0.538695,0.368707,-9.854534,-0.026646,-0.02638,0.02185
esp32-c3-002,14,19,154260,0.531513,0.371101,-9.854534,-0.027179,-0.027179,0.021317
esp32-c3-002,14,20,154280,0.531513,0.361524,-9.880871,-0.02638,-0.025047,0.021051
esp32-c3-002,14,21,154300,0.543484,0.368707,-9.861717,-0.026646,-0.02558,0.022383
esp32-c3-002,14,22,154320,0.538695,0.354342,-9.868899,-0.026646,-0.02638,0.02185
esp32-c3-002,14,23,154340,0.543484,0.351948,-9.832987,-0.025847,-0.02638,0.020518
esp32-c3-002,14,24,154360,0.538695,0.344765,-9.859323,-0.026113,-0.026913,0.020518
esp32-c3-002,14,25,154380,0.545878,0.368707,-9.856929,-0.026113,-0.026646,0.021583
esp32-c3-002,14,26,154400,0.560243,0.380678,-9.859323,-0.026913,-0.02638,0.022383
esp32-c3-002,14,27,154420,0.533907,0.373495,-9.844957,-0.02638,-0.026113,0.022116
esp32-c3-002,14,28,154440,0.509965,0.347159,-9.880871,-0.02638,-0.026113,0.022916
esp32-c3-002,14,29,154460,0.519542,0.328006,-9.873688,-0.025047,-0.025314,0.021583
esp32-c3-002,14,30,154480,0.538695,0.354342,-9.871294,-0.02638,-0.025847,0.021583
esp32-c3-002,14,31,154500,0.560243,0.378284,-9.864111,-0.025847,-0.026646,0.020251
esp32-c3-002,14,32,154520,0.545878,0.354342,-9.854534,-0.025847,-0.026646,0.020784
esp32-c3-002,14,33,154540,0.548272,0.368707,-9.902418,-0.026646,-0.025847,0.022383
esp32-c3-002,14,34,154560,0.548272,0.373495,-9.878476,-0.026113,-0.025847,0.023182
esp32-c3-002,14,35,154580,0.514753,0.351948,-9.868899,-0.02638,-0.025847,0.022383
esp32-c3-002,14,36,154600,0.505177,0.339977,-9.847352,-0.02638,-0.02558,0.022383
esp32-c3-002,14,37,154620,0.507571,0.361524,-9.864111,-0.026646,-0.02558,0.021583
esp32-c3-002,14,38,154640,0.533907,0.361524,-9.864111,-0.02638,-0.02558,0.021051
esp32-c3-002,14,39,154660,0.531513,0.354342,-9.847352,-0.02638,-0.026913,0.020784
esp32-c3-002,14,40,154680,0.553061,0.368707,-9.873688,-0.02558,-0.026113,0.021051
esp32-c3-002,14,41,154700,0.557849,0.366313,-9.844957,-0.026113,-0.02558,0.021051
esp32-c3-002,14,42,154720,0.553061,0.354342,-9.854534,-0.02638,-0.025314,0.022916
esp32-c3-002,14,43,154740,0.502782,0.37589,-9.873688,-0.026913,-0.02638,0.022649
esp32-c3-002,14,44,154760,0.514753,0.347159,-9.902418,-0.026646,-0.026913,0.02185
esp32-c3-002,14,45,154780,0.512359,0.356736,-9.871294,-0.02638,-0.02638,0.022383
esp32-c3-002,14,46,154800,0.514753,0.351948,-9.890448,-0.026646,-0.02558,0.021583
esp32-c3-002,14,47,154820,0.521936,0.361524,-9.847352,-0.02638,-0.026113,0.02185
esp32-c3-002,14,48,154840,0.526724,0.351948,-9.864111,-0.027179,-0.025847,0.021317
esp32-c3-002,14,49,154860,0.538695,0.387861,-9.849746,-0.026113,-0.026913,0.021317
esp32-c3-002,14,50,154880,0.529119,0.373495,-9.828198,-0.026113,-0.026646,0.021051
esp32-c3-002,14,51,154900,0.529119,0.383072,-9.854534,-0.02638,-0.026113,0.021583
esp32-c3-002,14,52,154920,0.533907,0.371101,-9.904813,-0.02638,-0.026113,0.022116
esp32-c3-002,14,53,154940,0.543484,0.356736,-9.878476,-0.026913,-0.025314,0.022116
esp32-c3-002,14,54,154960,0.529119,0.387861,-9.868899,-0.02638,-0.025314,0.022116
esp32-c3-002,14,55,154980,0.531513,0.351948,-9.849746,-0.027179,-0.026113,0.02185
esp32-c3-002,14,56,155000,0.521936,0.347159,-9.864111,-0.026646,-0.02558,0.021583
esp32-c3-002,14,57,155020,0.514753,0.354342,-9.854534,-0.026913,-0.024781,0.021317
esp32-c3-002,14,58,155040,0.509965,0.351948,-9.866506,-0.026913,-0.025314,0.021051
esp32-c3-002,14,59,155060,0.533907,0.35913,-9.876082,-0.026646,-0.025847,0.020251
esp32-c3-002,14,60,155081,0.572214,0.371101,-9.880871,-0.026113,-0.027446,0.019985
esp32-c3-002,14,61,155100,0.557849,0.368707,-9.885659,-0.026913,-0.026113,0.021317
esp32-c3-002,14,62,155120,0.543484,0.380678,-9.873688,-0.02638,-0.024781,0.022116
esp32-c3-002,14,63,155140,0.550666,0.371101,-9.880871,-0.02638,-0.025314,0.022916
esp32-c3-002,14,64,155160,0.533907,0.371101,-9.856929,-0.02638,-0.02558,0.022383
esp32-c3-002,14,65,155180,0.529119,0.354342,-9.859323,-0.026913,-0.02558,0.021317
esp32-c3-002,14,66,155200,0.526724,0.349553,-9.85214,-0.026646,-0.026113,0.021583
esp32-c3-002,14,67,155220,0.543484,0.368707,-9.864111,-0.026113,-0.026113,0.021583
esp32-c3-002,14,68,155240,0.521936,0.35913,-9.880871,-0.02638,-0.026113,0.021051
esp32-c3-002,14,69,155260,0.536301,0.349553,-9.868899,-0.026646,-0.02638,0.021583
esp32-c3-002,14,70,155280,0.536301,0.354342,-9.876082,-0.026646,-0.02638,0.021317
esp32-c3-002,14,71,155300,0.560243,0.356736,-9.854534,-0.026913,-0.026113,0.022116
esp32-c3-002,14,72,155320,0.529119,0.349553,-9.883265,-0.026913,-0.026113,0.021583
esp32-c3-002,14,73,155340,0.521936,0.344765,-9.835381,-0.027179,-0.02638,0.021583
esp32-c3-002,14,74,155360,0.560243,0.363919,-9.864111,-0.02638,-0.025314,0.02185
esp32-c3-002,14,75,155380,0.533907,0.383072,-9.849746,-0.026113,-0.02558,0.022116
